pt_OpenSesame	Version:1.02						Export Folder:~/Documents/_projects/3D Markers Tutorial/CollectedFiles	Project Folder:~/Documents/_projects/3D Markers Tutorial/aeprojsProject	BitsPerChannel:8	Blending:0	StartFrame:TIMECODE	FootageStart:SOURCE	Display:TIMECODE	DropFrame:0Folder	Name:example	ID:773	FolderID:0Folder	Name:Solids	ID:12	FolderID:773Folder	Name:footage	ID:774	FolderID:0Folder	Name:Solids	ID:896	FolderID:0Folder	Name:tutorial	ID:1178	FolderID:0Footage Section	6Footage	Name:3D Earth Main Flare_1280x720_fps25_[00000-00249].tif	ID:755	FolderID:774	Type:Sequence	Width:1280	Height:720		FieldSep:OFF		Pulldown:OFF				Aspect:1	FPS:25	Duration:10									Path:~/Documents/_projects/3D Markers Tutorial/render/3D Earth Main Flare/3D Earth Main Flare_1280x720_fps25_00000.tif	Relative Path:../render/3D Earth Main Flare/3D Earth Main Flare_1280x720_fps25_00000.tifFootage	Name:3D Earth Main Marker And Clouds_1280x720_fps25_[00000-00249].tif	ID:757	FolderID:774	Type:Sequence	Width:1280	Height:720		FieldSep:OFF		Pulldown:OFF	Alpha:PREMULT	Invert:0	PremulCol:0;0;0	Aspect:1	FPS:25	Duration:10									Path:~/Documents/_projects/3D Markers Tutorial/render/3D Earth Main Marker And Clouds/3D Earth Main Marker And Clouds_1280x720_fps25_00000.tif	Relative Path:../render/3D Earth Main Marker And Clouds/3D Earth Main Marker And Clouds_1280x720_fps25_00000.tifFootage	Name:3D Earth Main World_1280x720_fps25_[00000-00249].tif	ID:758	FolderID:774	Type:Sequence	Width:1280	Height:720		FieldSep:OFF		Pulldown:OFF				Aspect:1	FPS:25	Duration:10									Path:~/Documents/_projects/3D Markers Tutorial/render/3D Earth Main World/3D Earth Main World_1280x720_fps25_00000.tif	Relative Path:../render/3D Earth Main World/3D Earth Main World_1280x720_fps25_00000.tifFootage	Name:europe_clouds_8k.jpg	ID:324	FolderID:774	Type:Still	Width:8192	Height:4096		FieldSep:OFF						Aspect:1											Path:~/Documents/_projects/3D Markers Tutorial/images/europe_clouds_8k.jpg	Relative Path:../images/europe_clouds_8k.jpgFootage	Name:starfield.jpg	ID:332	FolderID:774	Type:Still	Width:6000	Height:4500		FieldSep:OFF						Aspect:1											Path:~/Documents/_projects/3D Markers Tutorial/images/starfield.jpg	Relative Path:../images/starfield.jpgFootage	Name:world_map.jpg	ID:327	FolderID:774	Type:Still	Width:14400	Height:7200		FieldSep:OFF						Aspect:1											Path:~/Documents/_projects/3D Markers Tutorial/images/world_map.jpg	Relative Path:../images/world_map.jpgComp Section	13Comp	Name:_Disapear Concept	ID:348	FolderID:0	Width:1280	Height:720	Resolution:1	MB:0	FB:0	Angle:180	Phase:0	Shy:0	PreserveRate:0	PreserveRes:0	Aspect:1	Duration:23	FPS:25					BgColor:0;0;0	DropFrame:0Comp	Name:3D Earth Main CC	ID:759	FolderID:0	Width:1280	Height:720	Resolution:4	MB:0	FB:0	Angle:180	Phase:0	Shy:0	PreserveRate:0	PreserveRes:0	Aspect:1	Duration:10	FPS:25					BgColor:0;0;0	DropFrame:1Comp	Name:3D Earth Main	ID:775	FolderID:773	Width:1280	Height:720	Resolution:4	MB:0	FB:0	Angle:180	Phase:0	Shy:0	PreserveRate:0	PreserveRes:0	Aspect:1	Duration:10	FPS:25					BgColor:0;0;0	NonSpotlights:Point;3	DropFrame:1Comp	Name:3D Earth Main Flare	ID:1	FolderID:773	Width:1280	Height:720	Resolution:4	MB:0	FB:0	Angle:180	Phase:0	Shy:0	PreserveRate:0	PreserveRes:0	Aspect:1	Duration:10	FPS:25					BgColor:0;0;0	NonSpotlights:Point;3	DropFrame:1Comp	Name:3D Earth Main Marker And Clouds	ID:619	FolderID:773	Width:1280	Height:720	Resolution:4	MB:0	FB:0	Angle:180	Phase:0	Shy:0	PreserveRate:0	PreserveRes:0	Aspect:1	Duration:10	FPS:25					BgColor:0;0;0	NonSpotlights:Point;3	DropFrame:1Comp	Name:3D Earth Main World	ID:498	FolderID:773	Width:1280	Height:720	Resolution:4	MB:0	FB:0	Angle:180	Phase:0	Shy:0	PreserveRate:0	PreserveRes:0	Aspect:1	Duration:10	FPS:25					BgColor:0;0;0	NonSpotlights:Point;3	DropFrame:1Comp	Name:loc basicMarker 601466	ID:17	FolderID:773	Width:25	Height:25	Resolution:4	MB:0	FB:0	Angle:180	Phase:0	Shy:0	PreserveRate:0	PreserveRes:0	Aspect:1	Duration:10	FPS:25					BgColor:0;0;0	DropFrame:0Comp	Name:new world map	ID:310	FolderID:773	Width:14400	Height:7200	Resolution:4	MB:0	FB:0	Angle:180	Phase:0	Shy:0	PreserveRate:0	PreserveRes:0	Aspect:1	Duration:23	FPS:25					BgColor:0;0;0	DropFrame:0Comp	Name:starfield pre	ID:334	FolderID:773	Width:6000	Height:4500	Resolution:4	MB:0	FB:0	Angle:180	Phase:0	Shy:0	PreserveRate:0	PreserveRes:0	Aspect:1	Duration:10	FPS:25					BgColor:0;0;0	DropFrame:1Comp	Name:3D Earth Tutorial	ID:954	FolderID:1178	Width:1280	Height:720	Resolution:4	MB:0	FB:0	Angle:180	Phase:0	Shy:0	PreserveRate:0	PreserveRes:0	Aspect:1	Duration:10	FPS:25					BgColor:0;0;0	DropFrame:0Comp	Name:graphic world map	ID:1155	FolderID:1178	Width:14400	Height:7200	Resolution:4	MB:0	FB:0	Angle:180	Phase:0	Shy:0	PreserveRate:0	PreserveRes:0	Aspect:1	Duration:23	FPS:25					BgColor:0;0;0	DropFrame:0Comp	Name:loc basicMarker 580980	ID:970	FolderID:1178	Width:50	Height:50	Resolution:4	MB:0	FB:0	Angle:180	Phase:0	Shy:0	PreserveRate:0	PreserveRes:0	Aspect:1	Duration:10	FPS:25					BgColor:0;0;0	DropFrame:0Comp	Name:new starfield	ID:1142	FolderID:1178	Width:6000	Height:4500	Resolution:4	MB:0	FB:0	Angle:180	Phase:0	Shy:0	PreserveRate:0	PreserveRes:0	Aspect:1	Duration:10	FPS:25					BgColor:0;0;0	DropFrame:1Solid Section	29Solid	Name:Black Solid 9	ID:1179	FolderID:896	Width:1280	Height:720	Aspect:1														Color:0;0;0Solid	Name:Dark Gray Solid 1	ID:1167	FolderID:896	Width:14400	Height:7200	Aspect:1														Color:0.26158088445663;0.26158088445663;0.26158088445663Solid	Name:Dunkelgrau Farbfläche 1	ID:322	FolderID:896	Width:14400	Height:7200	Aspect:1														Color:0.28190869092941;0.28190869092941;0.28190869092941Solid	Name:Dunkelgrau Farbfläche 2	ID:368	FolderID:896	Width:100	Height:100	Aspect:1														Color:0.13504901528358;0.13504901528358;0.13504901528358Solid	Name:Dunkelgrau Farbfläche 3	ID:899	FolderID:896	Width:1280	Height:720	Aspect:1														Color:0.2791819870472;0.2791819870472;0.2791819870472Solid	Name:E3D	ID:13	FolderID:896	Width:1280	Height:720	Aspect:1														Color:0;0;0Solid	Name:E3D Earth	ID:965	FolderID:896	Width:1280	Height:720	Aspect:1														Color:0;0;0Solid	Name:Einstellungsebene 1	ID:897	FolderID:896	Width:1280	Height:720	Aspect:1														Color:1;1;1Solid	Name:Element3D Test	ID:359	FolderID:896	Width:1280	Height:720	Aspect:1														Color:0;0;0Solid	Name:OF	ID:346	FolderID:896	Width:1280	Height:720	Aspect:1														Color:0;0;0Layer Section	573Layer	Name:Element3D Test	ID:359	CompID:348	Type:Solid	Video:1					AutoOrient:NONE									Blend:NORMAL			UsedIn:1	startTime:0	inPoint:0	outPoint:23	Layer	Name:Kamera 1		CompID:348	Type:Camera	Video:0					AutoOrient:CAM_POI											startTime:0	inPoint:0	outPoint:23	Layer	Name:Dolly	ID:363	CompID:348	Type:Null	Video:1					AutoOrient:NONE	3D:1								Blend:NORMAL			UsedIn:1	startTime:0	inPoint:0	outPoint:23	Layer	Name:console		CompID:348	Type:Text	Video:1					AutoOrient:NONE									Blend:NORMAL				startTime:0	inPoint:0	outPoint:23	Layer	Name:marker	ID:368	CompID:348	Type:Solid	Video:1					AutoOrient:NONE	3D:1								Blend:NORMAL			UsedIn:1	startTime:0	inPoint:0	outPoint:23	Layer	Name:Black Solid 9	ID:1179	CompID:759	Type:Solid	Video:1					AutoOrient:NONE									Blend:NORMAL			UsedIn:1	startTime:0	inPoint:0	outPoint:10	Layer	Name:3D Earth Main	ID:775	CompID:759	Type:Comp	Video:1					AutoOrient:NONE									Blend:NORMAL			UsedIn:1	startTime:0	inPoint:0	outPoint:10	Layer	Name:3D Earth Main World_1280x720_fps25_[00000-00249].tif	ID:758	CompID:759	Type:Footage	Video:0					AutoOrient:NONE									Blend:NORMAL			UsedIn:1	startTime:0	inPoint:0	outPoint:10	Layer	Name:3D Earth Main Marker And Clouds_1280x720_fps25_[00000-00249].tif	ID:757	CompID:759	Type:Footage	Video:0					AutoOrient:NONE									Blend:NORMAL			UsedIn:1	startTime:0	inPoint:0	outPoint:10	Layer	Name:Dunkelgrau Farbfläche 3	ID:899	CompID:759	Type:Solid	Video:1					AutoOrient:NONE									Blend:MULTIPLY			UsedIn:1	startTime:0	inPoint:0	outPoint:10	Layer	Name:3D Earth Main Flare_1280x720_fps25_[00000-00249].tif	ID:755	CompID:759	Type:Footage	Video:0					AutoOrient:NONE									Blend:SCREEN			UsedIn:1	startTime:0	inPoint:0	outPoint:10	Layer	Name:Einstellungsebene 1	ID:897	CompID:759	Type:Solid	Video:1					AutoOrient:NONE				Adjust:1					Blend:NORMAL			UsedIn:1	startTime:0	inPoint:0	outPoint:10	Layer	Name:starfield pre	ID:334	CompID:775	Type:Comp	Video:1					AutoOrient:NONE	3D:1								Blend:NORMAL			UsedIn:4	startTime:0	inPoint:0	outPoint:10	Layer	Name:E3D	ID:13	CompID:775	Type:Solid	Video:1					AutoOrient:NONE							Quality:DRAFT		Blend:NORMAL			UsedIn:4	startTime:0	inPoint:0	outPoint:10.48	Layer	Name:center 1356714601444	ID:15	CompID:775	Type:Null	Video:1			Shy:1		AutoOrient:NONE	3D:1								Blend:NORMAL			UsedIn:4	startTime:0	inPoint:0	outPoint:10.48	Layer	Name:loc Alabama	ID:17	CompID:775	Type:Comp	Video:1			Shy:1		AutoOrient:NONE	3D:1								Blend:NORMAL		Collapse:1	UsedIn:4	startTime:0	inPoint:0	outPoint:10	Layer	Name:loc Alaska	ID:17	CompID:775	Type:Comp	Video:1			Shy:1		AutoOrient:NONE	3D:1								Blend:NORMAL		Collapse:1	UsedIn:4	startTime:0	inPoint:0	outPoint:10	Layer	Name:loc Arizona	ID:17	CompID:775	Type:Comp	Video:1			Shy:1		AutoOrient:NONE	3D:1								Blend:NORMAL		Collapse:1	UsedIn:4	startTime:0	inPoint:0	outPoint:10	Layer	Name:loc Arkansas	ID:17	CompID:775	Type:Comp	Video:1			Shy:1		AutoOrient:NONE	3D:1								Blend:NORMAL		Collapse:1	UsedIn:4	startTime:0	inPoint:0	outPoint:10	Layer	Name:loc California	ID:17	CompID:775	Type:Comp	Video:1			Shy:1		AutoOrient:NONE	3D:1								Blend:NORMAL		Collapse:1	UsedIn:4	startTime:0	inPoint:0	outPoint:10	Layer	Name:loc Colorado	ID:17	CompID:775	Type:Comp	Video:1			Shy:1		AutoOrient:NONE	3D:1								Blend:NORMAL		Collapse:1	UsedIn:4	startTime:0	inPoint:0	outPoint:10	Layer	Name:loc Connecticut	ID:17	CompID:775	Type:Comp	Video:1			Shy:1		AutoOrient:NONE	3D:1								Blend:NORMAL		Collapse:1	UsedIn:4	startTime:0	inPoint:0	outPoint:10	Layer	Name:loc Delaware	ID:17	CompID:775	Type:Comp	Video:1			Shy:1		AutoOrient:NONE	3D:1								Blend:NORMAL		Collapse:1	UsedIn:4	startTime:0	inPoint:0	outPoint:10	Layer	Name:loc Hawaii	ID:17	CompID:775	Type:Comp	Video:1			Shy:1		AutoOrient:NONE	3D:1								Blend:NORMAL		Collapse:1	UsedIn:4	startTime:0	inPoint:0	outPoint:10	Layer	Name:loc Florida	ID:17	CompID:775	Type:Comp	Video:1			Shy:1		AutoOrient:NONE	3D:1								Blend:NORMAL		Collapse:1	UsedIn:4	startTime:0	inPoint:0	outPoint:10	Layer	Name:loc Georgia	ID:17	CompID:775	Type:Comp	Video:1			Shy:1		AutoOrient:NONE	3D:1								Blend:NORMAL		Collapse:1	UsedIn:4	startTime:0	inPoint:0	outPoint:10	Layer	Name:loc Idaho	ID:17	CompID:775	Type:Comp	Video:1			Shy:1		AutoOrient:NONE	3D:1								Blend:NORMAL		Collapse:1	UsedIn:4	startTime:0	inPoint:0	outPoint:10	Layer	Name:loc Illinois	ID:17	CompID:775	Type:Comp	Video:1			Shy:1		AutoOrient:NONE	3D:1								Blend:NORMAL		Collapse:1	UsedIn:4	startTime:0	inPoint:0	outPoint:10	Layer	Name:loc Indiana	ID:17	CompID:775	Type:Comp	Video:1			Shy:1		AutoOrient:NONE	3D:1								Blend:NORMAL		Collapse:1	UsedIn:4	startTime:0	inPoint:0	outPoint:10	Layer	Name:loc Iowa	ID:17	CompID:775	Type:Comp	Video:1			Shy:1		AutoOrient:NONE	3D:1								Blend:NORMAL		Collapse:1	UsedIn:4	startTime:0	inPoint:0	outPoint:10	Layer	Name:loc Kansas	ID:17	CompID:775	Type:Comp	Video:1			Shy:1		AutoOrient:NONE	3D:1								Blend:NORMAL		Collapse:1	UsedIn:4	startTime:0	inPoint:0	outPoint:10	Layer	Name:loc Kentucky	ID:17	CompID:775	Type:Comp	Video:1			Shy:1		AutoOrient:NONE	3D:1								Blend:NORMAL		Collapse:1	UsedIn:4	startTime:0	inPoint:0	outPoint:10	Layer	Name:loc Louisiana	ID:17	CompID:775	Type:Comp	Video:1			Shy:1		AutoOrient:NONE	3D:1								Blend:NORMAL		Collapse:1	UsedIn:4	startTime:0	inPoint:0	outPoint:10	Layer	Name:loc Maine	ID:17	CompID:775	Type:Comp	Video:1			Shy:1		AutoOrient:NONE	3D:1								Blend:NORMAL		Collapse:1	UsedIn:4	startTime:0	inPoint:0	outPoint:10	Layer	Name:loc Maryland	ID:17	CompID:775	Type:Comp	Video:1			Shy:1		AutoOrient:NONE	3D:1								Blend:NORMAL		Collapse:1	UsedIn:4	startTime:0	inPoint:0	outPoint:10	Layer	Name:loc Massachusetts	ID:17	CompID:775	Type:Comp	Video:1			Shy:1		AutoOrient:NONE	3D:1								Blend:NORMAL		Collapse:1	UsedIn:4	startTime:0	inPoint:0	outPoint:10	Layer	Name:loc Michigan	ID:17	CompID:775	Type:Comp	Video:1			Shy:1		AutoOrient:NONE	3D:1								Blend:NORMAL		Collapse:1	UsedIn:4	startTime:0	inPoint:0	outPoint:10	Layer	Name:loc Minnesota	ID:17	CompID:775	Type:Comp	Video:1			Shy:1		AutoOrient:NONE	3D:1								Blend:NORMAL		Collapse:1	UsedIn:4	startTime:0	inPoint:0	outPoint:10	Layer	Name:loc Mississippi	ID:17	CompID:775	Type:Comp	Video:1			Shy:1		AutoOrient:NONE	3D:1								Blend:NORMAL		Collapse:1	UsedIn:4	startTime:0	inPoint:0	outPoint:10	Layer	Name:loc Missouri	ID:17	CompID:775	Type:Comp	Video:1			Shy:1		AutoOrient:NONE	3D:1								Blend:NORMAL		Collapse:1	UsedIn:4	startTime:0	inPoint:0	outPoint:10	Layer	Name:loc Montana	ID:17	CompID:775	Type:Comp	Video:1			Shy:1		AutoOrient:NONE	3D:1								Blend:NORMAL		Collapse:1	UsedIn:4	startTime:0	inPoint:0	outPoint:10	Layer	Name:loc Nebraska	ID:17	CompID:775	Type:Comp	Video:1			Shy:1		AutoOrient:NONE	3D:1								Blend:NORMAL		Collapse:1	UsedIn:4	startTime:0	inPoint:0	outPoint:10	Layer	Name:loc Nevada	ID:17	CompID:775	Type:Comp	Video:1			Shy:1		AutoOrient:NONE	3D:1								Blend:NORMAL		Collapse:1	UsedIn:4	startTime:0	inPoint:0	outPoint:10	Layer	Name:loc New Hampshire	ID:17	CompID:775	Type:Comp	Video:1			Shy:1		AutoOrient:NONE	3D:1								Blend:NORMAL		Collapse:1	UsedIn:4	startTime:0	inPoint:0	outPoint:10	Layer	Name:loc New Jersey	ID:17	CompID:775	Type:Comp	Video:1			Shy:1		AutoOrient:NONE	3D:1								Blend:NORMAL		Collapse:1	UsedIn:4	startTime:0	inPoint:0	outPoint:10	Layer	Name:loc New Mexico	ID:17	CompID:775	Type:Comp	Video:1			Shy:1		AutoOrient:NONE	3D:1								Blend:NORMAL		Collapse:1	UsedIn:4	startTime:0	inPoint:0	outPoint:10	Layer	Name:loc North Carolina	ID:17	CompID:775	Type:Comp	Video:1			Shy:1		AutoOrient:NONE	3D:1								Blend:NORMAL		Collapse:1	UsedIn:4	startTime:0	inPoint:0	outPoint:10	Layer	Name:loc North Dakota	ID:17	CompID:775	Type:Comp	Video:1			Shy:1		AutoOrient:NONE	3D:1								Blend:NORMAL		Collapse:1	UsedIn:4	startTime:0	inPoint:0	outPoint:10	Layer	Name:loc New York	ID:17	CompID:775	Type:Comp	Video:1			Shy:1		AutoOrient:NONE	3D:1								Blend:NORMAL		Collapse:1	UsedIn:4	startTime:0	inPoint:0	outPoint:10	Layer	Name:loc Ohio	ID:17	CompID:775	Type:Comp	Video:1			Shy:1		AutoOrient:NONE	3D:1								Blend:NORMAL		Collapse:1	UsedIn:4	startTime:0	inPoint:0	outPoint:10	Layer	Name:loc Oklahoma	ID:17	CompID:775	Type:Comp	Video:1			Shy:1		AutoOrient:NONE	3D:1								Blend:NORMAL		Collapse:1	UsedIn:4	startTime:0	inPoint:0	outPoint:10	Layer	Name:loc Oregon	ID:17	CompID:775	Type:Comp	Video:1			Shy:1		AutoOrient:NONE	3D:1								Blend:NORMAL		Collapse:1	UsedIn:4	startTime:0	inPoint:0	outPoint:10	Layer	Name:loc Pennsylvania	ID:17	CompID:775	Type:Comp	Video:1			Shy:1		AutoOrient:NONE	3D:1								Blend:NORMAL		Collapse:1	UsedIn:4	startTime:0	inPoint:0	outPoint:10	Layer	Name:loc Rhode Island	ID:17	CompID:775	Type:Comp	Video:1			Shy:1		AutoOrient:NONE	3D:1								Blend:NORMAL		Collapse:1	UsedIn:4	startTime:0	inPoint:0	outPoint:10	Layer	Name:loc South Carolina	ID:17	CompID:775	Type:Comp	Video:1			Shy:1		AutoOrient:NONE	3D:1								Blend:NORMAL		Collapse:1	UsedIn:4	startTime:0	inPoint:0	outPoint:10	Layer	Name:loc South Dakota	ID:17	CompID:775	Type:Comp	Video:1			Shy:1		AutoOrient:NONE	3D:1								Blend:NORMAL		Collapse:1	UsedIn:4	startTime:0	inPoint:0	outPoint:10	Layer	Name:loc Tennessee	ID:17	CompID:775	Type:Comp	Video:1			Shy:1		AutoOrient:NONE	3D:1								Blend:NORMAL		Collapse:1	UsedIn:4	startTime:0	inPoint:0	outPoint:10	Layer	Name:loc Texas	ID:17	CompID:775	Type:Comp	Video:1			Shy:1		AutoOrient:NONE	3D:1								Blend:NORMAL		Collapse:1	UsedIn:4	startTime:0	inPoint:0	outPoint:10	Layer	Name:loc Utah	ID:17	CompID:775	Type:Comp	Video:1			Shy:1		AutoOrient:NONE	3D:1								Blend:NORMAL		Collapse:1	UsedIn:4	startTime:0	inPoint:0	outPoint:10	Layer	Name:loc Vermont	ID:17	CompID:775	Type:Comp	Video:1			Shy:1		AutoOrient:NONE	3D:1								Blend:NORMAL		Collapse:1	UsedIn:4	startTime:0	inPoint:0	outPoint:10	Layer	Name:loc Virginia	ID:17	CompID:775	Type:Comp	Video:1			Shy:1		AutoOrient:NONE	3D:1								Blend:NORMAL		Collapse:1	UsedIn:4	startTime:0	inPoint:0	outPoint:10	Layer	Name:loc Washington	ID:17	CompID:775	Type:Comp	Video:1			Shy:1		AutoOrient:NONE	3D:1								Blend:NORMAL		Collapse:1	UsedIn:4	startTime:0	inPoint:0	outPoint:10	Layer	Name:loc West Virginia	ID:17	CompID:775	Type:Comp	Video:1			Shy:1		AutoOrient:NONE	3D:1								Blend:NORMAL		Collapse:1	UsedIn:4	startTime:0	inPoint:0	outPoint:10	Layer	Name:loc Wisconsin	ID:17	CompID:775	Type:Comp	Video:1					AutoOrient:NONE	3D:1								Blend:NORMAL		Collapse:1	UsedIn:4	startTime:0	inPoint:0	outPoint:10	Layer	Name:loc Wyoming	ID:17	CompID:775	Type:Comp	Video:1			Shy:1		AutoOrient:NONE	3D:1								Blend:NORMAL		Collapse:1	UsedIn:4	startTime:0	inPoint:0	outPoint:10	Layer	Name:world_map.jpg	ID:327	CompID:775	Type:Footage	Video:0					AutoOrient:NONE									Blend:NORMAL			UsedIn:4	startTime:0	inPoint:0	outPoint:10	Layer	Name:E3D	ID:13	CompID:775	Type:Solid	Video:1					AutoOrient:NONE							Quality:DRAFT		Blend:ADD			UsedIn:4	startTime:0	inPoint:0	outPoint:10.48	Layer	Name:loc AK		CompID:775	Type:Text	Video:1			Shy:1		AutoOrient:NONE	3D:1								Blend:NORMAL				startTime:0	inPoint:0	outPoint:10	Layer	Name:loc AL		CompID:775	Type:Text	Video:1			Shy:1		AutoOrient:NONE	3D:1								Blend:NORMAL				startTime:0	inPoint:0	outPoint:10	Layer	Name:loc AR		CompID:775	Type:Text	Video:1			Shy:1		AutoOrient:NONE	3D:1								Blend:NORMAL				startTime:0	inPoint:0	outPoint:10	Layer	Name:loc AZ		CompID:775	Type:Text	Video:1			Shy:1		AutoOrient:NONE	3D:1								Blend:NORMAL				startTime:0	inPoint:0	outPoint:10	Layer	Name:loc CA		CompID:775	Type:Text	Video:1			Shy:1		AutoOrient:NONE	3D:1								Blend:NORMAL				startTime:0	inPoint:0	outPoint:10	Layer	Name:loc CO		CompID:775	Type:Text	Video:1			Shy:1		AutoOrient:NONE	3D:1								Blend:NORMAL				startTime:0	inPoint:0	outPoint:10	Layer	Name:loc CT		CompID:775	Type:Text	Video:1			Shy:1		AutoOrient:NONE	3D:1								Blend:NORMAL				startTime:0	inPoint:0	outPoint:10	Layer	Name:loc DC		CompID:775	Type:Text	Video:1			Shy:1		AutoOrient:NONE	3D:1								Blend:NORMAL				startTime:0	inPoint:0	outPoint:10	Layer	Name:loc DE		CompID:775	Type:Text	Video:1			Shy:1		AutoOrient:NONE	3D:1								Blend:NORMAL				startTime:0	inPoint:0	outPoint:10	Layer	Name:loc FL		CompID:775	Type:Text	Video:1			Shy:1		AutoOrient:NONE	3D:1								Blend:NORMAL				startTime:0	inPoint:0	outPoint:10	Layer	Name:loc GA		CompID:775	Type:Text	Video:1			Shy:1		AutoOrient:NONE	3D:1								Blend:NORMAL				startTime:0	inPoint:0	outPoint:10	Layer	Name:loc HI		CompID:775	Type:Text	Video:1			Shy:1		AutoOrient:NONE	3D:1								Blend:NORMAL				startTime:0	inPoint:0	outPoint:10	Layer	Name:loc IA		CompID:775	Type:Text	Video:1			Shy:1		AutoOrient:NONE	3D:1								Blend:NORMAL				startTime:0	inPoint:0	outPoint:10	Layer	Name:loc ID		CompID:775	Type:Text	Video:1			Shy:1		AutoOrient:NONE	3D:1								Blend:NORMAL				startTime:0	inPoint:0	outPoint:10	Layer	Name:loc IL		CompID:775	Type:Text	Video:1			Shy:1		AutoOrient:NONE	3D:1								Blend:NORMAL				startTime:0	inPoint:0	outPoint:10	Layer	Name:loc IN		CompID:775	Type:Text	Video:1			Shy:1		AutoOrient:NONE	3D:1								Blend:NORMAL				startTime:0	inPoint:0	outPoint:10	Layer	Name:loc KS		CompID:775	Type:Text	Video:1			Shy:1		AutoOrient:NONE	3D:1								Blend:NORMAL				startTime:0	inPoint:0	outPoint:10	Layer	Name:loc KY		CompID:775	Type:Text	Video:1			Shy:1		AutoOrient:NONE	3D:1								Blend:NORMAL				startTime:0	inPoint:0	outPoint:10	Layer	Name:loc LA		CompID:775	Type:Text	Video:1			Shy:1		AutoOrient:NONE	3D:1								Blend:NORMAL				startTime:0	inPoint:0	outPoint:10	Layer	Name:loc MA		CompID:775	Type:Text	Video:1			Shy:1		AutoOrient:NONE	3D:1								Blend:NORMAL				startTime:0	inPoint:0	outPoint:10	Layer	Name:loc MD		CompID:775	Type:Text	Video:1			Shy:1		AutoOrient:NONE	3D:1								Blend:NORMAL				startTime:0	inPoint:0	outPoint:10	Layer	Name:loc ME		CompID:775	Type:Text	Video:1			Shy:1		AutoOrient:NONE	3D:1								Blend:NORMAL				startTime:0	inPoint:0	outPoint:10	Layer	Name:loc MI		CompID:775	Type:Text	Video:1			Shy:1		AutoOrient:NONE	3D:1								Blend:NORMAL				startTime:0	inPoint:0	outPoint:10	Layer	Name:loc MN		CompID:775	Type:Text	Video:1			Shy:1		AutoOrient:NONE	3D:1								Blend:NORMAL				startTime:0	inPoint:0	outPoint:10	Layer	Name:loc MO		CompID:775	Type:Text	Video:1			Shy:1		AutoOrient:NONE	3D:1								Blend:NORMAL				startTime:0	inPoint:0	outPoint:10	Layer	Name:loc MS		CompID:775	Type:Text	Video:1			Shy:1		AutoOrient:NONE	3D:1								Blend:NORMAL				startTime:0	inPoint:0	outPoint:10	Layer	Name:loc MT		CompID:775	Type:Text	Video:1			Shy:1		AutoOrient:NONE	3D:1								Blend:NORMAL				startTime:0	inPoint:0	outPoint:10	Layer	Name:loc NC		CompID:775	Type:Text	Video:1			Shy:1		AutoOrient:NONE	3D:1								Blend:NORMAL				startTime:0	inPoint:0	outPoint:10	Layer	Name:loc ND		CompID:775	Type:Text	Video:1			Shy:1		AutoOrient:NONE	3D:1								Blend:NORMAL				startTime:0	inPoint:0	outPoint:10	Layer	Name:loc NE		CompID:775	Type:Text	Video:1			Shy:1		AutoOrient:NONE	3D:1								Blend:NORMAL				startTime:0	inPoint:0	outPoint:10	Layer	Name:loc NH		CompID:775	Type:Text	Video:1			Shy:1		AutoOrient:NONE	3D:1								Blend:NORMAL				startTime:0	inPoint:0	outPoint:10	Layer	Name:loc NJ		CompID:775	Type:Text	Video:1			Shy:1		AutoOrient:NONE	3D:1								Blend:NORMAL				startTime:0	inPoint:0	outPoint:10	Layer	Name:loc NM		CompID:775	Type:Text	Video:1			Shy:1		AutoOrient:NONE	3D:1								Blend:NORMAL				startTime:0	inPoint:0	outPoint:10	Layer	Name:loc NV		CompID:775	Type:Text	Video:1			Shy:1		AutoOrient:NONE	3D:1								Blend:NORMAL				startTime:0	inPoint:0	outPoint:10	Layer	Name:loc NY		CompID:775	Type:Text	Video:1			Shy:1		AutoOrient:NONE	3D:1								Blend:NORMAL				startTime:0	inPoint:0	outPoint:10	Layer	Name:loc OH		CompID:775	Type:Text	Video:1			Shy:1		AutoOrient:NONE	3D:1								Blend:NORMAL				startTime:0	inPoint:0	outPoint:10	Layer	Name:loc OK		CompID:775	Type:Text	Video:1			Shy:1		AutoOrient:NONE	3D:1								Blend:NORMAL				startTime:0	inPoint:0	outPoint:10	Layer	Name:loc OR		CompID:775	Type:Text	Video:1			Shy:1		AutoOrient:NONE	3D:1								Blend:NORMAL				startTime:0	inPoint:0	outPoint:10	Layer	Name:loc PA		CompID:775	Type:Text	Video:1			Shy:1		AutoOrient:NONE	3D:1								Blend:NORMAL				startTime:0	inPoint:0	outPoint:10	Layer	Name:loc RI		CompID:775	Type:Text	Video:1			Shy:1		AutoOrient:NONE	3D:1								Blend:NORMAL				startTime:0	inPoint:0	outPoint:10	Layer	Name:loc SC		CompID:775	Type:Text	Video:1			Shy:1		AutoOrient:NONE	3D:1								Blend:NORMAL				startTime:0	inPoint:0	outPoint:10	Layer	Name:loc SD		CompID:775	Type:Text	Video:1			Shy:1		AutoOrient:NONE	3D:1								Blend:NORMAL				startTime:0	inPoint:0	outPoint:10	Layer	Name:loc TN		CompID:775	Type:Text	Video:1			Shy:1		AutoOrient:NONE	3D:1								Blend:NORMAL				startTime:0	inPoint:0	outPoint:10	Layer	Name:loc TX		CompID:775	Type:Text	Video:1			Shy:1		AutoOrient:NONE	3D:1								Blend:NORMAL				startTime:0	inPoint:0	outPoint:10	Layer	Name:loc UT		CompID:775	Type:Text	Video:1			Shy:1		AutoOrient:NONE	3D:1								Blend:NORMAL				startTime:0	inPoint:0	outPoint:10	Layer	Name:loc VA		CompID:775	Type:Text	Video:1			Shy:1		AutoOrient:NONE	3D:1								Blend:NORMAL				startTime:0	inPoint:0	outPoint:10	Layer	Name:loc VT		CompID:775	Type:Text	Video:1			Shy:1		AutoOrient:NONE	3D:1								Blend:NORMAL				startTime:0	inPoint:0	outPoint:10	Layer	Name:loc WA		CompID:775	Type:Text	Video:1			Shy:1		AutoOrient:NONE	3D:1								Blend:NORMAL				startTime:0	inPoint:0	outPoint:10	Layer	Name:loc WI		CompID:775	Type:Text	Video:1			Shy:1		AutoOrient:NONE	3D:1								Blend:NORMAL				startTime:0	inPoint:0	outPoint:10	Layer	Name:loc WV		CompID:775	Type:Text	Video:1			Shy:1		AutoOrient:NONE	3D:1								Blend:NORMAL				startTime:0	inPoint:0	outPoint:10	Layer	Name:loc WY		CompID:775	Type:Text	Video:1			Shy:1		AutoOrient:NONE	3D:1								Blend:NORMAL				startTime:0	inPoint:0	outPoint:10	Layer	Name:Kamera 1		CompID:775	Type:Camera	Video:0					AutoOrient:CAM_POI											startTime:0	inPoint:0	outPoint:10.48	Layer	Name:Licht 1		CompID:775	Type:Light-Point	Video:0					AutoOrient:CAM_POI											startTime:0	inPoint:0	outPoint:10	Layer	Name:OF	ID:346	CompID:775	Type:Solid	Video:1					AutoOrient:NONE									Blend:NORMAL			UsedIn:4	startTime:0	inPoint:0	outPoint:10	Layer	Name:center 1356875224144	ID:401	CompID:775	Type:Null	Video:1					AutoOrient:NONE	3D:1								Blend:NORMAL			UsedIn:4	startTime:0	inPoint:0	outPoint:10	Layer	Name:starfield pre	ID:334	CompID:1	Type:Comp	Video:1					AutoOrient:NONE	3D:1								Blend:NORMAL			UsedIn:4	startTime:0	inPoint:0	outPoint:10	Layer	Name:E3D	ID:13	CompID:1	Type:Solid	Video:1					AutoOrient:NONE							Quality:DRAFT		Blend:NORMAL			UsedIn:4	startTime:0	inPoint:0	outPoint:10.48	Layer	Name:center 1356714601444	ID:15	CompID:1	Type:Null	Video:1			Shy:1		AutoOrient:NONE	3D:1								Blend:NORMAL			UsedIn:4	startTime:0	inPoint:0	outPoint:10.48	Layer	Name:loc Alabama	ID:17	CompID:1	Type:Comp	Video:1			Shy:1		AutoOrient:NONE	3D:1								Blend:NORMAL		Collapse:1	UsedIn:4	startTime:0	inPoint:0	outPoint:10	Layer	Name:loc Alaska	ID:17	CompID:1	Type:Comp	Video:1			Shy:1		AutoOrient:NONE	3D:1								Blend:NORMAL		Collapse:1	UsedIn:4	startTime:0	inPoint:0	outPoint:10	Layer	Name:loc Arizona	ID:17	CompID:1	Type:Comp	Video:1			Shy:1		AutoOrient:NONE	3D:1								Blend:NORMAL		Collapse:1	UsedIn:4	startTime:0	inPoint:0	outPoint:10	Layer	Name:loc Arkansas	ID:17	CompID:1	Type:Comp	Video:1			Shy:1		AutoOrient:NONE	3D:1								Blend:NORMAL		Collapse:1	UsedIn:4	startTime:0	inPoint:0	outPoint:10	Layer	Name:loc California	ID:17	CompID:1	Type:Comp	Video:1			Shy:1		AutoOrient:NONE	3D:1								Blend:NORMAL		Collapse:1	UsedIn:4	startTime:0	inPoint:0	outPoint:10	Layer	Name:loc Colorado	ID:17	CompID:1	Type:Comp	Video:1			Shy:1		AutoOrient:NONE	3D:1								Blend:NORMAL		Collapse:1	UsedIn:4	startTime:0	inPoint:0	outPoint:10	Layer	Name:loc Connecticut	ID:17	CompID:1	Type:Comp	Video:1			Shy:1		AutoOrient:NONE	3D:1								Blend:NORMAL		Collapse:1	UsedIn:4	startTime:0	inPoint:0	outPoint:10	Layer	Name:loc Delaware	ID:17	CompID:1	Type:Comp	Video:1			Shy:1		AutoOrient:NONE	3D:1								Blend:NORMAL		Collapse:1	UsedIn:4	startTime:0	inPoint:0	outPoint:10	Layer	Name:loc Hawaii	ID:17	CompID:1	Type:Comp	Video:1			Shy:1		AutoOrient:NONE	3D:1								Blend:NORMAL		Collapse:1	UsedIn:4	startTime:0	inPoint:0	outPoint:10	Layer	Name:loc Florida	ID:17	CompID:1	Type:Comp	Video:1			Shy:1		AutoOrient:NONE	3D:1								Blend:NORMAL		Collapse:1	UsedIn:4	startTime:0	inPoint:0	outPoint:10	Layer	Name:loc Georgia	ID:17	CompID:1	Type:Comp	Video:1			Shy:1		AutoOrient:NONE	3D:1								Blend:NORMAL		Collapse:1	UsedIn:4	startTime:0	inPoint:0	outPoint:10	Layer	Name:loc Idaho	ID:17	CompID:1	Type:Comp	Video:1			Shy:1		AutoOrient:NONE	3D:1								Blend:NORMAL		Collapse:1	UsedIn:4	startTime:0	inPoint:0	outPoint:10	Layer	Name:loc Illinois	ID:17	CompID:1	Type:Comp	Video:1			Shy:1		AutoOrient:NONE	3D:1								Blend:NORMAL		Collapse:1	UsedIn:4	startTime:0	inPoint:0	outPoint:10	Layer	Name:loc Indiana	ID:17	CompID:1	Type:Comp	Video:1			Shy:1		AutoOrient:NONE	3D:1								Blend:NORMAL		Collapse:1	UsedIn:4	startTime:0	inPoint:0	outPoint:10	Layer	Name:loc Iowa	ID:17	CompID:1	Type:Comp	Video:1			Shy:1		AutoOrient:NONE	3D:1								Blend:NORMAL		Collapse:1	UsedIn:4	startTime:0	inPoint:0	outPoint:10	Layer	Name:loc Kansas	ID:17	CompID:1	Type:Comp	Video:1			Shy:1		AutoOrient:NONE	3D:1								Blend:NORMAL		Collapse:1	UsedIn:4	startTime:0	inPoint:0	outPoint:10	Layer	Name:loc Kentucky	ID:17	CompID:1	Type:Comp	Video:1			Shy:1		AutoOrient:NONE	3D:1								Blend:NORMAL		Collapse:1	UsedIn:4	startTime:0	inPoint:0	outPoint:10	Layer	Name:loc Louisiana	ID:17	CompID:1	Type:Comp	Video:1			Shy:1		AutoOrient:NONE	3D:1								Blend:NORMAL		Collapse:1	UsedIn:4	startTime:0	inPoint:0	outPoint:10	Layer	Name:loc Maine	ID:17	CompID:1	Type:Comp	Video:1			Shy:1		AutoOrient:NONE	3D:1								Blend:NORMAL		Collapse:1	UsedIn:4	startTime:0	inPoint:0	outPoint:10	Layer	Name:loc Maryland	ID:17	CompID:1	Type:Comp	Video:1			Shy:1		AutoOrient:NONE	3D:1								Blend:NORMAL		Collapse:1	UsedIn:4	startTime:0	inPoint:0	outPoint:10	Layer	Name:loc Massachusetts	ID:17	CompID:1	Type:Comp	Video:1			Shy:1		AutoOrient:NONE	3D:1								Blend:NORMAL		Collapse:1	UsedIn:4	startTime:0	inPoint:0	outPoint:10	Layer	Name:loc Michigan	ID:17	CompID:1	Type:Comp	Video:1			Shy:1		AutoOrient:NONE	3D:1								Blend:NORMAL		Collapse:1	UsedIn:4	startTime:0	inPoint:0	outPoint:10	Layer	Name:loc Minnesota	ID:17	CompID:1	Type:Comp	Video:1			Shy:1		AutoOrient:NONE	3D:1								Blend:NORMAL		Collapse:1	UsedIn:4	startTime:0	inPoint:0	outPoint:10	Layer	Name:loc Mississippi	ID:17	CompID:1	Type:Comp	Video:1			Shy:1		AutoOrient:NONE	3D:1								Blend:NORMAL		Collapse:1	UsedIn:4	startTime:0	inPoint:0	outPoint:10	Layer	Name:loc Missouri	ID:17	CompID:1	Type:Comp	Video:1			Shy:1		AutoOrient:NONE	3D:1								Blend:NORMAL		Collapse:1	UsedIn:4	startTime:0	inPoint:0	outPoint:10	Layer	Name:loc Montana	ID:17	CompID:1	Type:Comp	Video:1			Shy:1		AutoOrient:NONE	3D:1								Blend:NORMAL		Collapse:1	UsedIn:4	startTime:0	inPoint:0	outPoint:10	Layer	Name:loc Nebraska	ID:17	CompID:1	Type:Comp	Video:1			Shy:1		AutoOrient:NONE	3D:1								Blend:NORMAL		Collapse:1	UsedIn:4	startTime:0	inPoint:0	outPoint:10	Layer	Name:loc Nevada	ID:17	CompID:1	Type:Comp	Video:1			Shy:1		AutoOrient:NONE	3D:1								Blend:NORMAL		Collapse:1	UsedIn:4	startTime:0	inPoint:0	outPoint:10	Layer	Name:loc New Hampshire	ID:17	CompID:1	Type:Comp	Video:1			Shy:1		AutoOrient:NONE	3D:1								Blend:NORMAL		Collapse:1	UsedIn:4	startTime:0	inPoint:0	outPoint:10	Layer	Name:loc New Jersey	ID:17	CompID:1	Type:Comp	Video:1			Shy:1		AutoOrient:NONE	3D:1								Blend:NORMAL		Collapse:1	UsedIn:4	startTime:0	inPoint:0	outPoint:10	Layer	Name:loc New Mexico	ID:17	CompID:1	Type:Comp	Video:1			Shy:1		AutoOrient:NONE	3D:1								Blend:NORMAL		Collapse:1	UsedIn:4	startTime:0	inPoint:0	outPoint:10	Layer	Name:loc North Carolina	ID:17	CompID:1	Type:Comp	Video:1			Shy:1		AutoOrient:NONE	3D:1								Blend:NORMAL		Collapse:1	UsedIn:4	startTime:0	inPoint:0	outPoint:10	Layer	Name:loc North Dakota	ID:17	CompID:1	Type:Comp	Video:1			Shy:1		AutoOrient:NONE	3D:1								Blend:NORMAL		Collapse:1	UsedIn:4	startTime:0	inPoint:0	outPoint:10	Layer	Name:loc New York	ID:17	CompID:1	Type:Comp	Video:1			Shy:1		AutoOrient:NONE	3D:1								Blend:NORMAL		Collapse:1	UsedIn:4	startTime:0	inPoint:0	outPoint:10	Layer	Name:loc Ohio	ID:17	CompID:1	Type:Comp	Video:1			Shy:1		AutoOrient:NONE	3D:1								Blend:NORMAL		Collapse:1	UsedIn:4	startTime:0	inPoint:0	outPoint:10	Layer	Name:loc Oklahoma	ID:17	CompID:1	Type:Comp	Video:1			Shy:1		AutoOrient:NONE	3D:1								Blend:NORMAL		Collapse:1	UsedIn:4	startTime:0	inPoint:0	outPoint:10	Layer	Name:loc Oregon	ID:17	CompID:1	Type:Comp	Video:1			Shy:1		AutoOrient:NONE	3D:1								Blend:NORMAL		Collapse:1	UsedIn:4	startTime:0	inPoint:0	outPoint:10	Layer	Name:loc Pennsylvania	ID:17	CompID:1	Type:Comp	Video:1			Shy:1		AutoOrient:NONE	3D:1								Blend:NORMAL		Collapse:1	UsedIn:4	startTime:0	inPoint:0	outPoint:10	Layer	Name:loc Rhode Island	ID:17	CompID:1	Type:Comp	Video:1			Shy:1		AutoOrient:NONE	3D:1								Blend:NORMAL		Collapse:1	UsedIn:4	startTime:0	inPoint:0	outPoint:10	Layer	Name:loc South Carolina	ID:17	CompID:1	Type:Comp	Video:1			Shy:1		AutoOrient:NONE	3D:1								Blend:NORMAL		Collapse:1	UsedIn:4	startTime:0	inPoint:0	outPoint:10	Layer	Name:loc South Dakota	ID:17	CompID:1	Type:Comp	Video:1			Shy:1		AutoOrient:NONE	3D:1								Blend:NORMAL		Collapse:1	UsedIn:4	startTime:0	inPoint:0	outPoint:10	Layer	Name:loc Tennessee	ID:17	CompID:1	Type:Comp	Video:1			Shy:1		AutoOrient:NONE	3D:1								Blend:NORMAL		Collapse:1	UsedIn:4	startTime:0	inPoint:0	outPoint:10	Layer	Name:loc Texas	ID:17	CompID:1	Type:Comp	Video:1			Shy:1		AutoOrient:NONE	3D:1								Blend:NORMAL		Collapse:1	UsedIn:4	startTime:0	inPoint:0	outPoint:10	Layer	Name:loc Utah	ID:17	CompID:1	Type:Comp	Video:1			Shy:1		AutoOrient:NONE	3D:1								Blend:NORMAL		Collapse:1	UsedIn:4	startTime:0	inPoint:0	outPoint:10	Layer	Name:loc Vermont	ID:17	CompID:1	Type:Comp	Video:1			Shy:1		AutoOrient:NONE	3D:1								Blend:NORMAL		Collapse:1	UsedIn:4	startTime:0	inPoint:0	outPoint:10	Layer	Name:loc Virginia	ID:17	CompID:1	Type:Comp	Video:1			Shy:1		AutoOrient:NONE	3D:1								Blend:NORMAL		Collapse:1	UsedIn:4	startTime:0	inPoint:0	outPoint:10	Layer	Name:loc Washington	ID:17	CompID:1	Type:Comp	Video:1			Shy:1		AutoOrient:NONE	3D:1								Blend:NORMAL		Collapse:1	UsedIn:4	startTime:0	inPoint:0	outPoint:10	Layer	Name:loc West Virginia	ID:17	CompID:1	Type:Comp	Video:1			Shy:1		AutoOrient:NONE	3D:1								Blend:NORMAL		Collapse:1	UsedIn:4	startTime:0	inPoint:0	outPoint:10	Layer	Name:loc Wisconsin	ID:17	CompID:1	Type:Comp	Video:1					AutoOrient:NONE	3D:1								Blend:NORMAL		Collapse:1	UsedIn:4	startTime:0	inPoint:0	outPoint:10	Layer	Name:loc Wyoming	ID:17	CompID:1	Type:Comp	Video:1			Shy:1		AutoOrient:NONE	3D:1								Blend:NORMAL		Collapse:1	UsedIn:4	startTime:0	inPoint:0	outPoint:10	Layer	Name:world_map.jpg	ID:327	CompID:1	Type:Footage	Video:0					AutoOrient:NONE									Blend:NORMAL			UsedIn:4	startTime:0	inPoint:0	outPoint:10	Layer	Name:E3D	ID:13	CompID:1	Type:Solid	Video:1					AutoOrient:NONE							Quality:DRAFT		Blend:ADD			UsedIn:4	startTime:0	inPoint:0	outPoint:10.48	Layer	Name:loc AK		CompID:1	Type:Text	Video:1			Shy:1		AutoOrient:NONE	3D:1								Blend:NORMAL				startTime:0	inPoint:0	outPoint:10	Layer	Name:loc AL		CompID:1	Type:Text	Video:1			Shy:1		AutoOrient:NONE	3D:1								Blend:NORMAL				startTime:0	inPoint:0	outPoint:10	Layer	Name:loc AR		CompID:1	Type:Text	Video:1			Shy:1		AutoOrient:NONE	3D:1								Blend:NORMAL				startTime:0	inPoint:0	outPoint:10	Layer	Name:loc AZ		CompID:1	Type:Text	Video:1			Shy:1		AutoOrient:NONE	3D:1								Blend:NORMAL				startTime:0	inPoint:0	outPoint:10	Layer	Name:loc CA		CompID:1	Type:Text	Video:1			Shy:1		AutoOrient:NONE	3D:1								Blend:NORMAL				startTime:0	inPoint:0	outPoint:10	Layer	Name:loc CO		CompID:1	Type:Text	Video:1			Shy:1		AutoOrient:NONE	3D:1								Blend:NORMAL				startTime:0	inPoint:0	outPoint:10	Layer	Name:loc CT		CompID:1	Type:Text	Video:1			Shy:1		AutoOrient:NONE	3D:1								Blend:NORMAL				startTime:0	inPoint:0	outPoint:10	Layer	Name:loc DC		CompID:1	Type:Text	Video:1			Shy:1		AutoOrient:NONE	3D:1								Blend:NORMAL				startTime:0	inPoint:0	outPoint:10	Layer	Name:loc DE		CompID:1	Type:Text	Video:1			Shy:1		AutoOrient:NONE	3D:1								Blend:NORMAL				startTime:0	inPoint:0	outPoint:10	Layer	Name:loc FL		CompID:1	Type:Text	Video:1			Shy:1		AutoOrient:NONE	3D:1								Blend:NORMAL				startTime:0	inPoint:0	outPoint:10	Layer	Name:loc GA		CompID:1	Type:Text	Video:1			Shy:1		AutoOrient:NONE	3D:1								Blend:NORMAL				startTime:0	inPoint:0	outPoint:10	Layer	Name:loc HI		CompID:1	Type:Text	Video:1			Shy:1		AutoOrient:NONE	3D:1								Blend:NORMAL				startTime:0	inPoint:0	outPoint:10	Layer	Name:loc IA		CompID:1	Type:Text	Video:1			Shy:1		AutoOrient:NONE	3D:1								Blend:NORMAL				startTime:0	inPoint:0	outPoint:10	Layer	Name:loc ID		CompID:1	Type:Text	Video:1			Shy:1		AutoOrient:NONE	3D:1								Blend:NORMAL				startTime:0	inPoint:0	outPoint:10	Layer	Name:loc IL		CompID:1	Type:Text	Video:1			Shy:1		AutoOrient:NONE	3D:1								Blend:NORMAL				startTime:0	inPoint:0	outPoint:10	Layer	Name:loc IN		CompID:1	Type:Text	Video:1			Shy:1		AutoOrient:NONE	3D:1								Blend:NORMAL				startTime:0	inPoint:0	outPoint:10	Layer	Name:loc KS		CompID:1	Type:Text	Video:1			Shy:1		AutoOrient:NONE	3D:1								Blend:NORMAL				startTime:0	inPoint:0	outPoint:10	Layer	Name:loc KY		CompID:1	Type:Text	Video:1			Shy:1		AutoOrient:NONE	3D:1								Blend:NORMAL				startTime:0	inPoint:0	outPoint:10	Layer	Name:loc LA		CompID:1	Type:Text	Video:1			Shy:1		AutoOrient:NONE	3D:1								Blend:NORMAL				startTime:0	inPoint:0	outPoint:10	Layer	Name:loc MA		CompID:1	Type:Text	Video:1			Shy:1		AutoOrient:NONE	3D:1								Blend:NORMAL				startTime:0	inPoint:0	outPoint:10	Layer	Name:loc MD		CompID:1	Type:Text	Video:1			Shy:1		AutoOrient:NONE	3D:1								Blend:NORMAL				startTime:0	inPoint:0	outPoint:10	Layer	Name:loc ME		CompID:1	Type:Text	Video:1			Shy:1		AutoOrient:NONE	3D:1								Blend:NORMAL				startTime:0	inPoint:0	outPoint:10	Layer	Name:loc MI		CompID:1	Type:Text	Video:1			Shy:1		AutoOrient:NONE	3D:1								Blend:NORMAL				startTime:0	inPoint:0	outPoint:10	Layer	Name:loc MN		CompID:1	Type:Text	Video:1			Shy:1		AutoOrient:NONE	3D:1								Blend:NORMAL				startTime:0	inPoint:0	outPoint:10	Layer	Name:loc MO		CompID:1	Type:Text	Video:1			Shy:1		AutoOrient:NONE	3D:1								Blend:NORMAL				startTime:0	inPoint:0	outPoint:10	Layer	Name:loc MS		CompID:1	Type:Text	Video:1			Shy:1		AutoOrient:NONE	3D:1								Blend:NORMAL				startTime:0	inPoint:0	outPoint:10	Layer	Name:loc MT		CompID:1	Type:Text	Video:1			Shy:1		AutoOrient:NONE	3D:1								Blend:NORMAL				startTime:0	inPoint:0	outPoint:10	Layer	Name:loc NC		CompID:1	Type:Text	Video:1			Shy:1		AutoOrient:NONE	3D:1								Blend:NORMAL				startTime:0	inPoint:0	outPoint:10	Layer	Name:loc ND		CompID:1	Type:Text	Video:1			Shy:1		AutoOrient:NONE	3D:1								Blend:NORMAL				startTime:0	inPoint:0	outPoint:10	Layer	Name:loc NE		CompID:1	Type:Text	Video:1			Shy:1		AutoOrient:NONE	3D:1								Blend:NORMAL				startTime:0	inPoint:0	outPoint:10	Layer	Name:loc NH		CompID:1	Type:Text	Video:1			Shy:1		AutoOrient:NONE	3D:1								Blend:NORMAL				startTime:0	inPoint:0	outPoint:10	Layer	Name:loc NJ		CompID:1	Type:Text	Video:1			Shy:1		AutoOrient:NONE	3D:1								Blend:NORMAL				startTime:0	inPoint:0	outPoint:10	Layer	Name:loc NM		CompID:1	Type:Text	Video:1			Shy:1		AutoOrient:NONE	3D:1								Blend:NORMAL				startTime:0	inPoint:0	outPoint:10	Layer	Name:loc NV		CompID:1	Type:Text	Video:1			Shy:1		AutoOrient:NONE	3D:1								Blend:NORMAL				startTime:0	inPoint:0	outPoint:10	Layer	Name:loc NY		CompID:1	Type:Text	Video:1			Shy:1		AutoOrient:NONE	3D:1								Blend:NORMAL				startTime:0	inPoint:0	outPoint:10	Layer	Name:loc OH		CompID:1	Type:Text	Video:1			Shy:1		AutoOrient:NONE	3D:1								Blend:NORMAL				startTime:0	inPoint:0	outPoint:10	Layer	Name:loc OK		CompID:1	Type:Text	Video:1			Shy:1		AutoOrient:NONE	3D:1								Blend:NORMAL				startTime:0	inPoint:0	outPoint:10	Layer	Name:loc OR		CompID:1	Type:Text	Video:1			Shy:1		AutoOrient:NONE	3D:1								Blend:NORMAL				startTime:0	inPoint:0	outPoint:10	Layer	Name:loc PA		CompID:1	Type:Text	Video:1			Shy:1		AutoOrient:NONE	3D:1								Blend:NORMAL				startTime:0	inPoint:0	outPoint:10	Layer	Name:loc RI		CompID:1	Type:Text	Video:1			Shy:1		AutoOrient:NONE	3D:1								Blend:NORMAL				startTime:0	inPoint:0	outPoint:10	Layer	Name:loc SC		CompID:1	Type:Text	Video:1			Shy:1		AutoOrient:NONE	3D:1								Blend:NORMAL				startTime:0	inPoint:0	outPoint:10	Layer	Name:loc SD		CompID:1	Type:Text	Video:1			Shy:1		AutoOrient:NONE	3D:1								Blend:NORMAL				startTime:0	inPoint:0	outPoint:10	Layer	Name:loc TN		CompID:1	Type:Text	Video:1			Shy:1		AutoOrient:NONE	3D:1								Blend:NORMAL				startTime:0	inPoint:0	outPoint:10	Layer	Name:loc TX		CompID:1	Type:Text	Video:1			Shy:1		AutoOrient:NONE	3D:1								Blend:NORMAL				startTime:0	inPoint:0	outPoint:10	Layer	Name:loc UT		CompID:1	Type:Text	Video:1			Shy:1		AutoOrient:NONE	3D:1								Blend:NORMAL				startTime:0	inPoint:0	outPoint:10	Layer	Name:loc VA		CompID:1	Type:Text	Video:1			Shy:1		AutoOrient:NONE	3D:1								Blend:NORMAL				startTime:0	inPoint:0	outPoint:10	Layer	Name:loc VT		CompID:1	Type:Text	Video:1			Shy:1		AutoOrient:NONE	3D:1								Blend:NORMAL				startTime:0	inPoint:0	outPoint:10	Layer	Name:loc WA		CompID:1	Type:Text	Video:1			Shy:1		AutoOrient:NONE	3D:1								Blend:NORMAL				startTime:0	inPoint:0	outPoint:10	Layer	Name:loc WI		CompID:1	Type:Text	Video:1			Shy:1		AutoOrient:NONE	3D:1								Blend:NORMAL				startTime:0	inPoint:0	outPoint:10	Layer	Name:loc WV		CompID:1	Type:Text	Video:1			Shy:1		AutoOrient:NONE	3D:1								Blend:NORMAL				startTime:0	inPoint:0	outPoint:10	Layer	Name:loc WY		CompID:1	Type:Text	Video:1			Shy:1		AutoOrient:NONE	3D:1								Blend:NORMAL				startTime:0	inPoint:0	outPoint:10	Layer	Name:Kamera 1		CompID:1	Type:Camera	Video:0					AutoOrient:CAM_POI											startTime:0	inPoint:0	outPoint:10.48	Layer	Name:Licht 1		CompID:1	Type:Light-Point	Video:0					AutoOrient:CAM_POI											startTime:0	inPoint:0	outPoint:10	Layer	Name:OF	ID:346	CompID:1	Type:Solid	Video:1		Solo:1			AutoOrient:NONE									Blend:NORMAL			UsedIn:4	startTime:0	inPoint:0	outPoint:10	Layer	Name:center 1356875224144	ID:401	CompID:1	Type:Null	Video:1					AutoOrient:NONE	3D:1								Blend:NORMAL			UsedIn:4	startTime:0	inPoint:0	outPoint:10	Layer	Name:starfield pre	ID:334	CompID:619	Type:Comp	Video:0					AutoOrient:NONE	3D:1								Blend:NORMAL			UsedIn:4	startTime:0	inPoint:0	outPoint:10	Layer	Name:E3D	ID:13	CompID:619	Type:Solid	Video:0					AutoOrient:NONE							Quality:DRAFT		Blend:NORMAL			UsedIn:4	startTime:0	inPoint:0	outPoint:10.48	Layer	Name:center 1356714601444	ID:15	CompID:619	Type:Null	Video:1			Shy:1		AutoOrient:NONE	3D:1								Blend:NORMAL			UsedIn:4	startTime:0	inPoint:0	outPoint:10.48	Layer	Name:loc Alabama	ID:17	CompID:619	Type:Comp	Video:1			Shy:1		AutoOrient:NONE	3D:1								Blend:NORMAL		Collapse:1	UsedIn:4	startTime:0	inPoint:0	outPoint:10	Layer	Name:loc Alaska	ID:17	CompID:619	Type:Comp	Video:1			Shy:1		AutoOrient:NONE	3D:1								Blend:NORMAL		Collapse:1	UsedIn:4	startTime:0	inPoint:0	outPoint:10	Layer	Name:loc Arizona	ID:17	CompID:619	Type:Comp	Video:1			Shy:1		AutoOrient:NONE	3D:1								Blend:NORMAL		Collapse:1	UsedIn:4	startTime:0	inPoint:0	outPoint:10	Layer	Name:loc Arkansas	ID:17	CompID:619	Type:Comp	Video:1			Shy:1		AutoOrient:NONE	3D:1								Blend:NORMAL		Collapse:1	UsedIn:4	startTime:0	inPoint:0	outPoint:10	Layer	Name:loc California	ID:17	CompID:619	Type:Comp	Video:1			Shy:1		AutoOrient:NONE	3D:1								Blend:NORMAL		Collapse:1	UsedIn:4	startTime:0	inPoint:0	outPoint:10	Layer	Name:loc Colorado	ID:17	CompID:619	Type:Comp	Video:1			Shy:1		AutoOrient:NONE	3D:1								Blend:NORMAL		Collapse:1	UsedIn:4	startTime:0	inPoint:0	outPoint:10	Layer	Name:loc Connecticut	ID:17	CompID:619	Type:Comp	Video:1			Shy:1		AutoOrient:NONE	3D:1								Blend:NORMAL		Collapse:1	UsedIn:4	startTime:0	inPoint:0	outPoint:10	Layer	Name:loc Delaware	ID:17	CompID:619	Type:Comp	Video:1			Shy:1		AutoOrient:NONE	3D:1								Blend:NORMAL		Collapse:1	UsedIn:4	startTime:0	inPoint:0	outPoint:10	Layer	Name:loc Hawaii	ID:17	CompID:619	Type:Comp	Video:1			Shy:1		AutoOrient:NONE	3D:1								Blend:NORMAL		Collapse:1	UsedIn:4	startTime:0	inPoint:0	outPoint:10	Layer	Name:loc Florida	ID:17	CompID:619	Type:Comp	Video:1			Shy:1		AutoOrient:NONE	3D:1								Blend:NORMAL		Collapse:1	UsedIn:4	startTime:0	inPoint:0	outPoint:10	Layer	Name:loc Georgia	ID:17	CompID:619	Type:Comp	Video:1			Shy:1		AutoOrient:NONE	3D:1								Blend:NORMAL		Collapse:1	UsedIn:4	startTime:0	inPoint:0	outPoint:10	Layer	Name:loc Idaho	ID:17	CompID:619	Type:Comp	Video:1			Shy:1		AutoOrient:NONE	3D:1								Blend:NORMAL		Collapse:1	UsedIn:4	startTime:0	inPoint:0	outPoint:10	Layer	Name:loc Illinois	ID:17	CompID:619	Type:Comp	Video:1			Shy:1		AutoOrient:NONE	3D:1								Blend:NORMAL		Collapse:1	UsedIn:4	startTime:0	inPoint:0	outPoint:10	Layer	Name:loc Indiana	ID:17	CompID:619	Type:Comp	Video:1			Shy:1		AutoOrient:NONE	3D:1								Blend:NORMAL		Collapse:1	UsedIn:4	startTime:0	inPoint:0	outPoint:10	Layer	Name:loc Iowa	ID:17	CompID:619	Type:Comp	Video:1			Shy:1		AutoOrient:NONE	3D:1								Blend:NORMAL		Collapse:1	UsedIn:4	startTime:0	inPoint:0	outPoint:10	Layer	Name:loc Kansas	ID:17	CompID:619	Type:Comp	Video:1			Shy:1		AutoOrient:NONE	3D:1								Blend:NORMAL		Collapse:1	UsedIn:4	startTime:0	inPoint:0	outPoint:10	Layer	Name:loc Kentucky	ID:17	CompID:619	Type:Comp	Video:1			Shy:1		AutoOrient:NONE	3D:1								Blend:NORMAL		Collapse:1	UsedIn:4	startTime:0	inPoint:0	outPoint:10	Layer	Name:loc Louisiana	ID:17	CompID:619	Type:Comp	Video:1			Shy:1		AutoOrient:NONE	3D:1								Blend:NORMAL		Collapse:1	UsedIn:4	startTime:0	inPoint:0	outPoint:10	Layer	Name:loc Maine	ID:17	CompID:619	Type:Comp	Video:1			Shy:1		AutoOrient:NONE	3D:1								Blend:NORMAL		Collapse:1	UsedIn:4	startTime:0	inPoint:0	outPoint:10	Layer	Name:loc Maryland	ID:17	CompID:619	Type:Comp	Video:1			Shy:1		AutoOrient:NONE	3D:1								Blend:NORMAL		Collapse:1	UsedIn:4	startTime:0	inPoint:0	outPoint:10	Layer	Name:loc Massachusetts	ID:17	CompID:619	Type:Comp	Video:1			Shy:1		AutoOrient:NONE	3D:1								Blend:NORMAL		Collapse:1	UsedIn:4	startTime:0	inPoint:0	outPoint:10	Layer	Name:loc Michigan	ID:17	CompID:619	Type:Comp	Video:1			Shy:1		AutoOrient:NONE	3D:1								Blend:NORMAL		Collapse:1	UsedIn:4	startTime:0	inPoint:0	outPoint:10	Layer	Name:loc Minnesota	ID:17	CompID:619	Type:Comp	Video:1			Shy:1		AutoOrient:NONE	3D:1								Blend:NORMAL		Collapse:1	UsedIn:4	startTime:0	inPoint:0	outPoint:10	Layer	Name:loc Mississippi	ID:17	CompID:619	Type:Comp	Video:1			Shy:1		AutoOrient:NONE	3D:1								Blend:NORMAL		Collapse:1	UsedIn:4	startTime:0	inPoint:0	outPoint:10	Layer	Name:loc Missouri	ID:17	CompID:619	Type:Comp	Video:1			Shy:1		AutoOrient:NONE	3D:1								Blend:NORMAL		Collapse:1	UsedIn:4	startTime:0	inPoint:0	outPoint:10	Layer	Name:loc Montana	ID:17	CompID:619	Type:Comp	Video:1			Shy:1		AutoOrient:NONE	3D:1								Blend:NORMAL		Collapse:1	UsedIn:4	startTime:0	inPoint:0	outPoint:10	Layer	Name:loc Nebraska	ID:17	CompID:619	Type:Comp	Video:1			Shy:1		AutoOrient:NONE	3D:1								Blend:NORMAL		Collapse:1	UsedIn:4	startTime:0	inPoint:0	outPoint:10	Layer	Name:loc Nevada	ID:17	CompID:619	Type:Comp	Video:1			Shy:1		AutoOrient:NONE	3D:1								Blend:NORMAL		Collapse:1	UsedIn:4	startTime:0	inPoint:0	outPoint:10	Layer	Name:loc New Hampshire	ID:17	CompID:619	Type:Comp	Video:1			Shy:1		AutoOrient:NONE	3D:1								Blend:NORMAL		Collapse:1	UsedIn:4	startTime:0	inPoint:0	outPoint:10	Layer	Name:loc New Jersey	ID:17	CompID:619	Type:Comp	Video:1			Shy:1		AutoOrient:NONE	3D:1								Blend:NORMAL		Collapse:1	UsedIn:4	startTime:0	inPoint:0	outPoint:10	Layer	Name:loc New Mexico	ID:17	CompID:619	Type:Comp	Video:1			Shy:1		AutoOrient:NONE	3D:1								Blend:NORMAL		Collapse:1	UsedIn:4	startTime:0	inPoint:0	outPoint:10	Layer	Name:loc North Carolina	ID:17	CompID:619	Type:Comp	Video:1			Shy:1		AutoOrient:NONE	3D:1								Blend:NORMAL		Collapse:1	UsedIn:4	startTime:0	inPoint:0	outPoint:10	Layer	Name:loc North Dakota	ID:17	CompID:619	Type:Comp	Video:1			Shy:1		AutoOrient:NONE	3D:1								Blend:NORMAL		Collapse:1	UsedIn:4	startTime:0	inPoint:0	outPoint:10	Layer	Name:loc New York	ID:17	CompID:619	Type:Comp	Video:1			Shy:1		AutoOrient:NONE	3D:1								Blend:NORMAL		Collapse:1	UsedIn:4	startTime:0	inPoint:0	outPoint:10	Layer	Name:loc Ohio	ID:17	CompID:619	Type:Comp	Video:1			Shy:1		AutoOrient:NONE	3D:1								Blend:NORMAL		Collapse:1	UsedIn:4	startTime:0	inPoint:0	outPoint:10	Layer	Name:loc Oklahoma	ID:17	CompID:619	Type:Comp	Video:1			Shy:1		AutoOrient:NONE	3D:1								Blend:NORMAL		Collapse:1	UsedIn:4	startTime:0	inPoint:0	outPoint:10	Layer	Name:loc Oregon	ID:17	CompID:619	Type:Comp	Video:1			Shy:1		AutoOrient:NONE	3D:1								Blend:NORMAL		Collapse:1	UsedIn:4	startTime:0	inPoint:0	outPoint:10	Layer	Name:loc Pennsylvania	ID:17	CompID:619	Type:Comp	Video:1			Shy:1		AutoOrient:NONE	3D:1								Blend:NORMAL		Collapse:1	UsedIn:4	startTime:0	inPoint:0	outPoint:10	Layer	Name:loc Rhode Island	ID:17	CompID:619	Type:Comp	Video:1			Shy:1		AutoOrient:NONE	3D:1								Blend:NORMAL		Collapse:1	UsedIn:4	startTime:0	inPoint:0	outPoint:10	Layer	Name:loc South Carolina	ID:17	CompID:619	Type:Comp	Video:1			Shy:1		AutoOrient:NONE	3D:1								Blend:NORMAL		Collapse:1	UsedIn:4	startTime:0	inPoint:0	outPoint:10	Layer	Name:loc South Dakota	ID:17	CompID:619	Type:Comp	Video:1			Shy:1		AutoOrient:NONE	3D:1								Blend:NORMAL		Collapse:1	UsedIn:4	startTime:0	inPoint:0	outPoint:10	Layer	Name:loc Tennessee	ID:17	CompID:619	Type:Comp	Video:1			Shy:1		AutoOrient:NONE	3D:1								Blend:NORMAL		Collapse:1	UsedIn:4	startTime:0	inPoint:0	outPoint:10	Layer	Name:loc Texas	ID:17	CompID:619	Type:Comp	Video:1			Shy:1		AutoOrient:NONE	3D:1								Blend:NORMAL		Collapse:1	UsedIn:4	startTime:0	inPoint:0	outPoint:10	Layer	Name:loc Utah	ID:17	CompID:619	Type:Comp	Video:1			Shy:1		AutoOrient:NONE	3D:1								Blend:NORMAL		Collapse:1	UsedIn:4	startTime:0	inPoint:0	outPoint:10	Layer	Name:loc Vermont	ID:17	CompID:619	Type:Comp	Video:1			Shy:1		AutoOrient:NONE	3D:1								Blend:NORMAL		Collapse:1	UsedIn:4	startTime:0	inPoint:0	outPoint:10	Layer	Name:loc Virginia	ID:17	CompID:619	Type:Comp	Video:1			Shy:1		AutoOrient:NONE	3D:1								Blend:NORMAL		Collapse:1	UsedIn:4	startTime:0	inPoint:0	outPoint:10	Layer	Name:loc Washington	ID:17	CompID:619	Type:Comp	Video:1			Shy:1		AutoOrient:NONE	3D:1								Blend:NORMAL		Collapse:1	UsedIn:4	startTime:0	inPoint:0	outPoint:10	Layer	Name:loc West Virginia	ID:17	CompID:619	Type:Comp	Video:1			Shy:1		AutoOrient:NONE	3D:1								Blend:NORMAL		Collapse:1	UsedIn:4	startTime:0	inPoint:0	outPoint:10	Layer	Name:loc Wisconsin	ID:17	CompID:619	Type:Comp	Video:1					AutoOrient:NONE	3D:1								Blend:NORMAL		Collapse:1	UsedIn:4	startTime:0	inPoint:0	outPoint:10	Layer	Name:loc Wyoming	ID:17	CompID:619	Type:Comp	Video:1			Shy:1		AutoOrient:NONE	3D:1								Blend:NORMAL		Collapse:1	UsedIn:4	startTime:0	inPoint:0	outPoint:10	Layer	Name:world_map.jpg	ID:327	CompID:619	Type:Footage	Video:0					AutoOrient:NONE									Blend:NORMAL			UsedIn:4	startTime:0	inPoint:0	outPoint:10	Layer	Name:E3D	ID:13	CompID:619	Type:Solid	Video:1					AutoOrient:NONE							Quality:DRAFT		Blend:ADD			UsedIn:4	startTime:0	inPoint:0	outPoint:10.48	Layer	Name:loc AK		CompID:619	Type:Text	Video:1			Shy:1		AutoOrient:NONE	3D:1								Blend:NORMAL				startTime:0	inPoint:0	outPoint:10	Layer	Name:loc AL		CompID:619	Type:Text	Video:1			Shy:1		AutoOrient:NONE	3D:1								Blend:NORMAL				startTime:0	inPoint:0	outPoint:10	Layer	Name:loc AR		CompID:619	Type:Text	Video:1			Shy:1		AutoOrient:NONE	3D:1								Blend:NORMAL				startTime:0	inPoint:0	outPoint:10	Layer	Name:loc AZ		CompID:619	Type:Text	Video:1			Shy:1		AutoOrient:NONE	3D:1								Blend:NORMAL				startTime:0	inPoint:0	outPoint:10	Layer	Name:loc CA		CompID:619	Type:Text	Video:1			Shy:1		AutoOrient:NONE	3D:1								Blend:NORMAL				startTime:0	inPoint:0	outPoint:10	Layer	Name:loc CO		CompID:619	Type:Text	Video:1			Shy:1		AutoOrient:NONE	3D:1								Blend:NORMAL				startTime:0	inPoint:0	outPoint:10	Layer	Name:loc CT		CompID:619	Type:Text	Video:1			Shy:1		AutoOrient:NONE	3D:1								Blend:NORMAL				startTime:0	inPoint:0	outPoint:10	Layer	Name:loc DC		CompID:619	Type:Text	Video:1			Shy:1		AutoOrient:NONE	3D:1								Blend:NORMAL				startTime:0	inPoint:0	outPoint:10	Layer	Name:loc DE		CompID:619	Type:Text	Video:1			Shy:1		AutoOrient:NONE	3D:1								Blend:NORMAL				startTime:0	inPoint:0	outPoint:10	Layer	Name:loc FL		CompID:619	Type:Text	Video:1			Shy:1		AutoOrient:NONE	3D:1								Blend:NORMAL				startTime:0	inPoint:0	outPoint:10	Layer	Name:loc GA		CompID:619	Type:Text	Video:1			Shy:1		AutoOrient:NONE	3D:1								Blend:NORMAL				startTime:0	inPoint:0	outPoint:10	Layer	Name:loc HI		CompID:619	Type:Text	Video:1			Shy:1		AutoOrient:NONE	3D:1								Blend:NORMAL				startTime:0	inPoint:0	outPoint:10	Layer	Name:loc IA		CompID:619	Type:Text	Video:1			Shy:1		AutoOrient:NONE	3D:1								Blend:NORMAL				startTime:0	inPoint:0	outPoint:10	Layer	Name:loc ID		CompID:619	Type:Text	Video:1			Shy:1		AutoOrient:NONE	3D:1								Blend:NORMAL				startTime:0	inPoint:0	outPoint:10	Layer	Name:loc IL		CompID:619	Type:Text	Video:1			Shy:1		AutoOrient:NONE	3D:1								Blend:NORMAL				startTime:0	inPoint:0	outPoint:10	Layer	Name:loc IN		CompID:619	Type:Text	Video:1			Shy:1		AutoOrient:NONE	3D:1								Blend:NORMAL				startTime:0	inPoint:0	outPoint:10	Layer	Name:loc KS		CompID:619	Type:Text	Video:1			Shy:1		AutoOrient:NONE	3D:1								Blend:NORMAL				startTime:0	inPoint:0	outPoint:10	Layer	Name:loc KY		CompID:619	Type:Text	Video:1			Shy:1		AutoOrient:NONE	3D:1								Blend:NORMAL				startTime:0	inPoint:0	outPoint:10	Layer	Name:loc LA		CompID:619	Type:Text	Video:1			Shy:1		AutoOrient:NONE	3D:1								Blend:NORMAL				startTime:0	inPoint:0	outPoint:10	Layer	Name:loc MA		CompID:619	Type:Text	Video:1			Shy:1		AutoOrient:NONE	3D:1								Blend:NORMAL				startTime:0	inPoint:0	outPoint:10	Layer	Name:loc MD		CompID:619	Type:Text	Video:1			Shy:1		AutoOrient:NONE	3D:1								Blend:NORMAL				startTime:0	inPoint:0	outPoint:10	Layer	Name:loc ME		CompID:619	Type:Text	Video:1			Shy:1		AutoOrient:NONE	3D:1								Blend:NORMAL				startTime:0	inPoint:0	outPoint:10	Layer	Name:loc MI		CompID:619	Type:Text	Video:1			Shy:1		AutoOrient:NONE	3D:1								Blend:NORMAL				startTime:0	inPoint:0	outPoint:10	Layer	Name:loc MN		CompID:619	Type:Text	Video:1			Shy:1		AutoOrient:NONE	3D:1								Blend:NORMAL				startTime:0	inPoint:0	outPoint:10	Layer	Name:loc MO		CompID:619	Type:Text	Video:1			Shy:1		AutoOrient:NONE	3D:1								Blend:NORMAL				startTime:0	inPoint:0	outPoint:10	Layer	Name:loc MS		CompID:619	Type:Text	Video:1			Shy:1		AutoOrient:NONE	3D:1								Blend:NORMAL				startTime:0	inPoint:0	outPoint:10	Layer	Name:loc MT		CompID:619	Type:Text	Video:1			Shy:1		AutoOrient:NONE	3D:1								Blend:NORMAL				startTime:0	inPoint:0	outPoint:10	Layer	Name:loc NC		CompID:619	Type:Text	Video:1			Shy:1		AutoOrient:NONE	3D:1								Blend:NORMAL				startTime:0	inPoint:0	outPoint:10	Layer	Name:loc ND		CompID:619	Type:Text	Video:1			Shy:1		AutoOrient:NONE	3D:1								Blend:NORMAL				startTime:0	inPoint:0	outPoint:10	Layer	Name:loc NE		CompID:619	Type:Text	Video:1			Shy:1		AutoOrient:NONE	3D:1								Blend:NORMAL				startTime:0	inPoint:0	outPoint:10	Layer	Name:loc NH		CompID:619	Type:Text	Video:1			Shy:1		AutoOrient:NONE	3D:1								Blend:NORMAL				startTime:0	inPoint:0	outPoint:10	Layer	Name:loc NJ		CompID:619	Type:Text	Video:1			Shy:1		AutoOrient:NONE	3D:1								Blend:NORMAL				startTime:0	inPoint:0	outPoint:10	Layer	Name:loc NM		CompID:619	Type:Text	Video:1			Shy:1		AutoOrient:NONE	3D:1								Blend:NORMAL				startTime:0	inPoint:0	outPoint:10	Layer	Name:loc NV		CompID:619	Type:Text	Video:1			Shy:1		AutoOrient:NONE	3D:1								Blend:NORMAL				startTime:0	inPoint:0	outPoint:10	Layer	Name:loc NY		CompID:619	Type:Text	Video:1			Shy:1		AutoOrient:NONE	3D:1								Blend:NORMAL				startTime:0	inPoint:0	outPoint:10	Layer	Name:loc OH		CompID:619	Type:Text	Video:1			Shy:1		AutoOrient:NONE	3D:1								Blend:NORMAL				startTime:0	inPoint:0	outPoint:10	Layer	Name:loc OK		CompID:619	Type:Text	Video:1			Shy:1		AutoOrient:NONE	3D:1								Blend:NORMAL				startTime:0	inPoint:0	outPoint:10	Layer	Name:loc OR		CompID:619	Type:Text	Video:1			Shy:1		AutoOrient:NONE	3D:1								Blend:NORMAL				startTime:0	inPoint:0	outPoint:10	Layer	Name:loc PA		CompID:619	Type:Text	Video:1			Shy:1		AutoOrient:NONE	3D:1								Blend:NORMAL				startTime:0	inPoint:0	outPoint:10	Layer	Name:loc RI		CompID:619	Type:Text	Video:1			Shy:1		AutoOrient:NONE	3D:1								Blend:NORMAL				startTime:0	inPoint:0	outPoint:10	Layer	Name:loc SC		CompID:619	Type:Text	Video:1			Shy:1		AutoOrient:NONE	3D:1								Blend:NORMAL				startTime:0	inPoint:0	outPoint:10	Layer	Name:loc SD		CompID:619	Type:Text	Video:1			Shy:1		AutoOrient:NONE	3D:1								Blend:NORMAL				startTime:0	inPoint:0	outPoint:10	Layer	Name:loc TN		CompID:619	Type:Text	Video:1			Shy:1		AutoOrient:NONE	3D:1								Blend:NORMAL				startTime:0	inPoint:0	outPoint:10	Layer	Name:loc TX		CompID:619	Type:Text	Video:1			Shy:1		AutoOrient:NONE	3D:1								Blend:NORMAL				startTime:0	inPoint:0	outPoint:10	Layer	Name:loc UT		CompID:619	Type:Text	Video:1			Shy:1		AutoOrient:NONE	3D:1								Blend:NORMAL				startTime:0	inPoint:0	outPoint:10	Layer	Name:loc VA		CompID:619	Type:Text	Video:1			Shy:1		AutoOrient:NONE	3D:1								Blend:NORMAL				startTime:0	inPoint:0	outPoint:10	Layer	Name:loc VT		CompID:619	Type:Text	Video:1			Shy:1		AutoOrient:NONE	3D:1								Blend:NORMAL				startTime:0	inPoint:0	outPoint:10	Layer	Name:loc WA		CompID:619	Type:Text	Video:1			Shy:1		AutoOrient:NONE	3D:1								Blend:NORMAL				startTime:0	inPoint:0	outPoint:10	Layer	Name:loc WI		CompID:619	Type:Text	Video:1			Shy:1		AutoOrient:NONE	3D:1								Blend:NORMAL				startTime:0	inPoint:0	outPoint:10	Layer	Name:loc WV		CompID:619	Type:Text	Video:1			Shy:1		AutoOrient:NONE	3D:1								Blend:NORMAL				startTime:0	inPoint:0	outPoint:10	Layer	Name:loc WY		CompID:619	Type:Text	Video:1			Shy:1		AutoOrient:NONE	3D:1								Blend:NORMAL				startTime:0	inPoint:0	outPoint:10	Layer	Name:Kamera 1		CompID:619	Type:Camera	Video:0					AutoOrient:CAM_POI											startTime:0	inPoint:0	outPoint:10.48	Layer	Name:Licht 1		CompID:619	Type:Light-Point	Video:0					AutoOrient:CAM_POI											startTime:0	inPoint:0	outPoint:10	Layer	Name:OF	ID:346	CompID:619	Type:Solid	Video:0					AutoOrient:NONE									Blend:NORMAL			UsedIn:4	startTime:0	inPoint:0	outPoint:10	Layer	Name:center 1356875224144	ID:401	CompID:619	Type:Null	Video:1					AutoOrient:NONE	3D:1								Blend:NORMAL			UsedIn:4	startTime:0	inPoint:0	outPoint:10	Layer	Name:starfield pre	ID:334	CompID:498	Type:Comp	Video:1		Solo:1			AutoOrient:NONE	3D:1								Blend:NORMAL			UsedIn:4	startTime:0	inPoint:0	outPoint:10	Layer	Name:E3D	ID:13	CompID:498	Type:Solid	Video:1		Solo:1			AutoOrient:NONE							Quality:DRAFT		Blend:NORMAL			UsedIn:4	startTime:0	inPoint:0	outPoint:10.48	Layer	Name:center 1356714601444	ID:15	CompID:498	Type:Null	Video:1			Shy:1		AutoOrient:NONE	3D:1								Blend:NORMAL			UsedIn:4	startTime:0	inPoint:0	outPoint:10.48	Layer	Name:loc Alabama	ID:17	CompID:498	Type:Comp	Video:1			Shy:1		AutoOrient:NONE	3D:1								Blend:NORMAL		Collapse:1	UsedIn:4	startTime:0	inPoint:0	outPoint:10	Layer	Name:loc Alaska	ID:17	CompID:498	Type:Comp	Video:1			Shy:1		AutoOrient:NONE	3D:1								Blend:NORMAL		Collapse:1	UsedIn:4	startTime:0	inPoint:0	outPoint:10	Layer	Name:loc Arizona	ID:17	CompID:498	Type:Comp	Video:1			Shy:1		AutoOrient:NONE	3D:1								Blend:NORMAL		Collapse:1	UsedIn:4	startTime:0	inPoint:0	outPoint:10	Layer	Name:loc Arkansas	ID:17	CompID:498	Type:Comp	Video:1			Shy:1		AutoOrient:NONE	3D:1								Blend:NORMAL		Collapse:1	UsedIn:4	startTime:0	inPoint:0	outPoint:10	Layer	Name:loc California	ID:17	CompID:498	Type:Comp	Video:1			Shy:1		AutoOrient:NONE	3D:1								Blend:NORMAL		Collapse:1	UsedIn:4	startTime:0	inPoint:0	outPoint:10	Layer	Name:loc Colorado	ID:17	CompID:498	Type:Comp	Video:1			Shy:1		AutoOrient:NONE	3D:1								Blend:NORMAL		Collapse:1	UsedIn:4	startTime:0	inPoint:0	outPoint:10	Layer	Name:loc Connecticut	ID:17	CompID:498	Type:Comp	Video:1			Shy:1		AutoOrient:NONE	3D:1								Blend:NORMAL		Collapse:1	UsedIn:4	startTime:0	inPoint:0	outPoint:10	Layer	Name:loc Delaware	ID:17	CompID:498	Type:Comp	Video:1			Shy:1		AutoOrient:NONE	3D:1								Blend:NORMAL		Collapse:1	UsedIn:4	startTime:0	inPoint:0	outPoint:10	Layer	Name:loc Hawaii	ID:17	CompID:498	Type:Comp	Video:1			Shy:1		AutoOrient:NONE	3D:1								Blend:NORMAL		Collapse:1	UsedIn:4	startTime:0	inPoint:0	outPoint:10	Layer	Name:loc Florida	ID:17	CompID:498	Type:Comp	Video:1			Shy:1		AutoOrient:NONE	3D:1								Blend:NORMAL		Collapse:1	UsedIn:4	startTime:0	inPoint:0	outPoint:10	Layer	Name:loc Georgia	ID:17	CompID:498	Type:Comp	Video:1			Shy:1		AutoOrient:NONE	3D:1								Blend:NORMAL		Collapse:1	UsedIn:4	startTime:0	inPoint:0	outPoint:10	Layer	Name:loc Idaho	ID:17	CompID:498	Type:Comp	Video:1			Shy:1		AutoOrient:NONE	3D:1								Blend:NORMAL		Collapse:1	UsedIn:4	startTime:0	inPoint:0	outPoint:10	Layer	Name:loc Illinois	ID:17	CompID:498	Type:Comp	Video:1			Shy:1		AutoOrient:NONE	3D:1								Blend:NORMAL		Collapse:1	UsedIn:4	startTime:0	inPoint:0	outPoint:10	Layer	Name:loc Indiana	ID:17	CompID:498	Type:Comp	Video:1			Shy:1		AutoOrient:NONE	3D:1								Blend:NORMAL		Collapse:1	UsedIn:4	startTime:0	inPoint:0	outPoint:10	Layer	Name:loc Iowa	ID:17	CompID:498	Type:Comp	Video:1			Shy:1		AutoOrient:NONE	3D:1								Blend:NORMAL		Collapse:1	UsedIn:4	startTime:0	inPoint:0	outPoint:10	Layer	Name:loc Kansas	ID:17	CompID:498	Type:Comp	Video:1			Shy:1		AutoOrient:NONE	3D:1								Blend:NORMAL		Collapse:1	UsedIn:4	startTime:0	inPoint:0	outPoint:10	Layer	Name:loc Kentucky	ID:17	CompID:498	Type:Comp	Video:1			Shy:1		AutoOrient:NONE	3D:1								Blend:NORMAL		Collapse:1	UsedIn:4	startTime:0	inPoint:0	outPoint:10	Layer	Name:loc Louisiana	ID:17	CompID:498	Type:Comp	Video:1			Shy:1		AutoOrient:NONE	3D:1								Blend:NORMAL		Collapse:1	UsedIn:4	startTime:0	inPoint:0	outPoint:10	Layer	Name:loc Maine	ID:17	CompID:498	Type:Comp	Video:1			Shy:1		AutoOrient:NONE	3D:1								Blend:NORMAL		Collapse:1	UsedIn:4	startTime:0	inPoint:0	outPoint:10	Layer	Name:loc Maryland	ID:17	CompID:498	Type:Comp	Video:1			Shy:1		AutoOrient:NONE	3D:1								Blend:NORMAL		Collapse:1	UsedIn:4	startTime:0	inPoint:0	outPoint:10	Layer	Name:loc Massachusetts	ID:17	CompID:498	Type:Comp	Video:1			Shy:1		AutoOrient:NONE	3D:1								Blend:NORMAL		Collapse:1	UsedIn:4	startTime:0	inPoint:0	outPoint:10	Layer	Name:loc Michigan	ID:17	CompID:498	Type:Comp	Video:1			Shy:1		AutoOrient:NONE	3D:1								Blend:NORMAL		Collapse:1	UsedIn:4	startTime:0	inPoint:0	outPoint:10	Layer	Name:loc Minnesota	ID:17	CompID:498	Type:Comp	Video:1			Shy:1		AutoOrient:NONE	3D:1								Blend:NORMAL		Collapse:1	UsedIn:4	startTime:0	inPoint:0	outPoint:10	Layer	Name:loc Mississippi	ID:17	CompID:498	Type:Comp	Video:1			Shy:1		AutoOrient:NONE	3D:1								Blend:NORMAL		Collapse:1	UsedIn:4	startTime:0	inPoint:0	outPoint:10	Layer	Name:loc Missouri	ID:17	CompID:498	Type:Comp	Video:1			Shy:1		AutoOrient:NONE	3D:1								Blend:NORMAL		Collapse:1	UsedIn:4	startTime:0	inPoint:0	outPoint:10	Layer	Name:loc Montana	ID:17	CompID:498	Type:Comp	Video:1			Shy:1		AutoOrient:NONE	3D:1								Blend:NORMAL		Collapse:1	UsedIn:4	startTime:0	inPoint:0	outPoint:10	Layer	Name:loc Nebraska	ID:17	CompID:498	Type:Comp	Video:1			Shy:1		AutoOrient:NONE	3D:1								Blend:NORMAL		Collapse:1	UsedIn:4	startTime:0	inPoint:0	outPoint:10	Layer	Name:loc Nevada	ID:17	CompID:498	Type:Comp	Video:1			Shy:1		AutoOrient:NONE	3D:1								Blend:NORMAL		Collapse:1	UsedIn:4	startTime:0	inPoint:0	outPoint:10	Layer	Name:loc New Hampshire	ID:17	CompID:498	Type:Comp	Video:1			Shy:1		AutoOrient:NONE	3D:1								Blend:NORMAL		Collapse:1	UsedIn:4	startTime:0	inPoint:0	outPoint:10	Layer	Name:loc New Jersey	ID:17	CompID:498	Type:Comp	Video:1			Shy:1		AutoOrient:NONE	3D:1								Blend:NORMAL		Collapse:1	UsedIn:4	startTime:0	inPoint:0	outPoint:10	Layer	Name:loc New Mexico	ID:17	CompID:498	Type:Comp	Video:1			Shy:1		AutoOrient:NONE	3D:1								Blend:NORMAL		Collapse:1	UsedIn:4	startTime:0	inPoint:0	outPoint:10	Layer	Name:loc North Carolina	ID:17	CompID:498	Type:Comp	Video:1			Shy:1		AutoOrient:NONE	3D:1								Blend:NORMAL		Collapse:1	UsedIn:4	startTime:0	inPoint:0	outPoint:10	Layer	Name:loc North Dakota	ID:17	CompID:498	Type:Comp	Video:1			Shy:1		AutoOrient:NONE	3D:1								Blend:NORMAL		Collapse:1	UsedIn:4	startTime:0	inPoint:0	outPoint:10	Layer	Name:loc New York	ID:17	CompID:498	Type:Comp	Video:1			Shy:1		AutoOrient:NONE	3D:1								Blend:NORMAL		Collapse:1	UsedIn:4	startTime:0	inPoint:0	outPoint:10	Layer	Name:loc Ohio	ID:17	CompID:498	Type:Comp	Video:1			Shy:1		AutoOrient:NONE	3D:1								Blend:NORMAL		Collapse:1	UsedIn:4	startTime:0	inPoint:0	outPoint:10	Layer	Name:loc Oklahoma	ID:17	CompID:498	Type:Comp	Video:1			Shy:1		AutoOrient:NONE	3D:1								Blend:NORMAL		Collapse:1	UsedIn:4	startTime:0	inPoint:0	outPoint:10	Layer	Name:loc Oregon	ID:17	CompID:498	Type:Comp	Video:1			Shy:1		AutoOrient:NONE	3D:1								Blend:NORMAL		Collapse:1	UsedIn:4	startTime:0	inPoint:0	outPoint:10	Layer	Name:loc Pennsylvania	ID:17	CompID:498	Type:Comp	Video:1			Shy:1		AutoOrient:NONE	3D:1								Blend:NORMAL		Collapse:1	UsedIn:4	startTime:0	inPoint:0	outPoint:10	Layer	Name:loc Rhode Island	ID:17	CompID:498	Type:Comp	Video:1			Shy:1		AutoOrient:NONE	3D:1								Blend:NORMAL		Collapse:1	UsedIn:4	startTime:0	inPoint:0	outPoint:10	Layer	Name:loc South Carolina	ID:17	CompID:498	Type:Comp	Video:1			Shy:1		AutoOrient:NONE	3D:1								Blend:NORMAL		Collapse:1	UsedIn:4	startTime:0	inPoint:0	outPoint:10	Layer	Name:loc South Dakota	ID:17	CompID:498	Type:Comp	Video:1			Shy:1		AutoOrient:NONE	3D:1								Blend:NORMAL		Collapse:1	UsedIn:4	startTime:0	inPoint:0	outPoint:10	Layer	Name:loc Tennessee	ID:17	CompID:498	Type:Comp	Video:1			Shy:1		AutoOrient:NONE	3D:1								Blend:NORMAL		Collapse:1	UsedIn:4	startTime:0	inPoint:0	outPoint:10	Layer	Name:loc Texas	ID:17	CompID:498	Type:Comp	Video:1			Shy:1		AutoOrient:NONE	3D:1								Blend:NORMAL		Collapse:1	UsedIn:4	startTime:0	inPoint:0	outPoint:10	Layer	Name:loc Utah	ID:17	CompID:498	Type:Comp	Video:1			Shy:1		AutoOrient:NONE	3D:1								Blend:NORMAL		Collapse:1	UsedIn:4	startTime:0	inPoint:0	outPoint:10	Layer	Name:loc Vermont	ID:17	CompID:498	Type:Comp	Video:1			Shy:1		AutoOrient:NONE	3D:1								Blend:NORMAL		Collapse:1	UsedIn:4	startTime:0	inPoint:0	outPoint:10	Layer	Name:loc Virginia	ID:17	CompID:498	Type:Comp	Video:1			Shy:1		AutoOrient:NONE	3D:1								Blend:NORMAL		Collapse:1	UsedIn:4	startTime:0	inPoint:0	outPoint:10	Layer	Name:loc Washington	ID:17	CompID:498	Type:Comp	Video:1			Shy:1		AutoOrient:NONE	3D:1								Blend:NORMAL		Collapse:1	UsedIn:4	startTime:0	inPoint:0	outPoint:10	Layer	Name:loc West Virginia	ID:17	CompID:498	Type:Comp	Video:1			Shy:1		AutoOrient:NONE	3D:1								Blend:NORMAL		Collapse:1	UsedIn:4	startTime:0	inPoint:0	outPoint:10	Layer	Name:loc Wisconsin	ID:17	CompID:498	Type:Comp	Video:1					AutoOrient:NONE	3D:1								Blend:NORMAL		Collapse:1	UsedIn:4	startTime:0	inPoint:0	outPoint:10	Layer	Name:loc Wyoming	ID:17	CompID:498	Type:Comp	Video:1			Shy:1		AutoOrient:NONE	3D:1								Blend:NORMAL		Collapse:1	UsedIn:4	startTime:0	inPoint:0	outPoint:10	Layer	Name:world_map.jpg	ID:327	CompID:498	Type:Footage	Video:0					AutoOrient:NONE									Blend:NORMAL			UsedIn:4	startTime:0	inPoint:0	outPoint:10	Layer	Name:E3D	ID:13	CompID:498	Type:Solid	Video:1					AutoOrient:NONE							Quality:DRAFT		Blend:ADD			UsedIn:4	startTime:0	inPoint:0	outPoint:10.48	Layer	Name:loc AK		CompID:498	Type:Text	Video:1			Shy:1		AutoOrient:NONE	3D:1								Blend:NORMAL				startTime:0	inPoint:0	outPoint:10	Layer	Name:loc AL		CompID:498	Type:Text	Video:1			Shy:1		AutoOrient:NONE	3D:1								Blend:NORMAL				startTime:0	inPoint:0	outPoint:10	Layer	Name:loc AR		CompID:498	Type:Text	Video:1			Shy:1		AutoOrient:NONE	3D:1								Blend:NORMAL				startTime:0	inPoint:0	outPoint:10	Layer	Name:loc AZ		CompID:498	Type:Text	Video:1			Shy:1		AutoOrient:NONE	3D:1								Blend:NORMAL				startTime:0	inPoint:0	outPoint:10	Layer	Name:loc CA		CompID:498	Type:Text	Video:1			Shy:1		AutoOrient:NONE	3D:1								Blend:NORMAL				startTime:0	inPoint:0	outPoint:10	Layer	Name:loc CO		CompID:498	Type:Text	Video:1			Shy:1		AutoOrient:NONE	3D:1								Blend:NORMAL				startTime:0	inPoint:0	outPoint:10	Layer	Name:loc CT		CompID:498	Type:Text	Video:1			Shy:1		AutoOrient:NONE	3D:1								Blend:NORMAL				startTime:0	inPoint:0	outPoint:10	Layer	Name:loc DC		CompID:498	Type:Text	Video:1			Shy:1		AutoOrient:NONE	3D:1								Blend:NORMAL				startTime:0	inPoint:0	outPoint:10	Layer	Name:loc DE		CompID:498	Type:Text	Video:1			Shy:1		AutoOrient:NONE	3D:1								Blend:NORMAL				startTime:0	inPoint:0	outPoint:10	Layer	Name:loc FL		CompID:498	Type:Text	Video:1			Shy:1		AutoOrient:NONE	3D:1								Blend:NORMAL				startTime:0	inPoint:0	outPoint:10	Layer	Name:loc GA		CompID:498	Type:Text	Video:1			Shy:1		AutoOrient:NONE	3D:1								Blend:NORMAL				startTime:0	inPoint:0	outPoint:10	Layer	Name:loc HI		CompID:498	Type:Text	Video:1			Shy:1		AutoOrient:NONE	3D:1								Blend:NORMAL				startTime:0	inPoint:0	outPoint:10	Layer	Name:loc IA		CompID:498	Type:Text	Video:1			Shy:1		AutoOrient:NONE	3D:1								Blend:NORMAL				startTime:0	inPoint:0	outPoint:10	Layer	Name:loc ID		CompID:498	Type:Text	Video:1			Shy:1		AutoOrient:NONE	3D:1								Blend:NORMAL				startTime:0	inPoint:0	outPoint:10	Layer	Name:loc IL		CompID:498	Type:Text	Video:1			Shy:1		AutoOrient:NONE	3D:1								Blend:NORMAL				startTime:0	inPoint:0	outPoint:10	Layer	Name:loc IN		CompID:498	Type:Text	Video:1			Shy:1		AutoOrient:NONE	3D:1								Blend:NORMAL				startTime:0	inPoint:0	outPoint:10	Layer	Name:loc KS		CompID:498	Type:Text	Video:1			Shy:1		AutoOrient:NONE	3D:1								Blend:NORMAL				startTime:0	inPoint:0	outPoint:10	Layer	Name:loc KY		CompID:498	Type:Text	Video:1			Shy:1		AutoOrient:NONE	3D:1								Blend:NORMAL				startTime:0	inPoint:0	outPoint:10	Layer	Name:loc LA		CompID:498	Type:Text	Video:1			Shy:1		AutoOrient:NONE	3D:1								Blend:NORMAL				startTime:0	inPoint:0	outPoint:10	Layer	Name:loc MA		CompID:498	Type:Text	Video:1			Shy:1		AutoOrient:NONE	3D:1								Blend:NORMAL				startTime:0	inPoint:0	outPoint:10	Layer	Name:loc MD		CompID:498	Type:Text	Video:1			Shy:1		AutoOrient:NONE	3D:1								Blend:NORMAL				startTime:0	inPoint:0	outPoint:10	Layer	Name:loc ME		CompID:498	Type:Text	Video:1			Shy:1		AutoOrient:NONE	3D:1								Blend:NORMAL				startTime:0	inPoint:0	outPoint:10	Layer	Name:loc MI		CompID:498	Type:Text	Video:1			Shy:1		AutoOrient:NONE	3D:1								Blend:NORMAL				startTime:0	inPoint:0	outPoint:10	Layer	Name:loc MN		CompID:498	Type:Text	Video:1			Shy:1		AutoOrient:NONE	3D:1								Blend:NORMAL				startTime:0	inPoint:0	outPoint:10	Layer	Name:loc MO		CompID:498	Type:Text	Video:1			Shy:1		AutoOrient:NONE	3D:1								Blend:NORMAL				startTime:0	inPoint:0	outPoint:10	Layer	Name:loc MS		CompID:498	Type:Text	Video:1			Shy:1		AutoOrient:NONE	3D:1								Blend:NORMAL				startTime:0	inPoint:0	outPoint:10	Layer	Name:loc MT		CompID:498	Type:Text	Video:1			Shy:1		AutoOrient:NONE	3D:1								Blend:NORMAL				startTime:0	inPoint:0	outPoint:10	Layer	Name:loc NC		CompID:498	Type:Text	Video:1			Shy:1		AutoOrient:NONE	3D:1								Blend:NORMAL				startTime:0	inPoint:0	outPoint:10	Layer	Name:loc ND		CompID:498	Type:Text	Video:1			Shy:1		AutoOrient:NONE	3D:1								Blend:NORMAL				startTime:0	inPoint:0	outPoint:10	Layer	Name:loc NE		CompID:498	Type:Text	Video:1			Shy:1		AutoOrient:NONE	3D:1								Blend:NORMAL				startTime:0	inPoint:0	outPoint:10	Layer	Name:loc NH		CompID:498	Type:Text	Video:1			Shy:1		AutoOrient:NONE	3D:1								Blend:NORMAL				startTime:0	inPoint:0	outPoint:10	Layer	Name:loc NJ		CompID:498	Type:Text	Video:1			Shy:1		AutoOrient:NONE	3D:1								Blend:NORMAL				startTime:0	inPoint:0	outPoint:10	Layer	Name:loc NM		CompID:498	Type:Text	Video:1			Shy:1		AutoOrient:NONE	3D:1								Blend:NORMAL				startTime:0	inPoint:0	outPoint:10	Layer	Name:loc NV		CompID:498	Type:Text	Video:1			Shy:1		AutoOrient:NONE	3D:1								Blend:NORMAL				startTime:0	inPoint:0	outPoint:10	Layer	Name:loc NY		CompID:498	Type:Text	Video:1			Shy:1		AutoOrient:NONE	3D:1								Blend:NORMAL				startTime:0	inPoint:0	outPoint:10	Layer	Name:loc OH		CompID:498	Type:Text	Video:1			Shy:1		AutoOrient:NONE	3D:1								Blend:NORMAL				startTime:0	inPoint:0	outPoint:10	Layer	Name:loc OK		CompID:498	Type:Text	Video:1			Shy:1		AutoOrient:NONE	3D:1								Blend:NORMAL				startTime:0	inPoint:0	outPoint:10	Layer	Name:loc OR		CompID:498	Type:Text	Video:1			Shy:1		AutoOrient:NONE	3D:1								Blend:NORMAL				startTime:0	inPoint:0	outPoint:10	Layer	Name:loc PA		CompID:498	Type:Text	Video:1			Shy:1		AutoOrient:NONE	3D:1								Blend:NORMAL				startTime:0	inPoint:0	outPoint:10	Layer	Name:loc RI		CompID:498	Type:Text	Video:1			Shy:1		AutoOrient:NONE	3D:1								Blend:NORMAL				startTime:0	inPoint:0	outPoint:10	Layer	Name:loc SC		CompID:498	Type:Text	Video:1			Shy:1		AutoOrient:NONE	3D:1								Blend:NORMAL				startTime:0	inPoint:0	outPoint:10	Layer	Name:loc SD		CompID:498	Type:Text	Video:1			Shy:1		AutoOrient:NONE	3D:1								Blend:NORMAL				startTime:0	inPoint:0	outPoint:10	Layer	Name:loc TN		CompID:498	Type:Text	Video:1			Shy:1		AutoOrient:NONE	3D:1								Blend:NORMAL				startTime:0	inPoint:0	outPoint:10	Layer	Name:loc TX		CompID:498	Type:Text	Video:1			Shy:1		AutoOrient:NONE	3D:1								Blend:NORMAL				startTime:0	inPoint:0	outPoint:10	Layer	Name:loc UT		CompID:498	Type:Text	Video:1			Shy:1		AutoOrient:NONE	3D:1								Blend:NORMAL				startTime:0	inPoint:0	outPoint:10	Layer	Name:loc VA		CompID:498	Type:Text	Video:1			Shy:1		AutoOrient:NONE	3D:1								Blend:NORMAL				startTime:0	inPoint:0	outPoint:10	Layer	Name:loc VT		CompID:498	Type:Text	Video:1			Shy:1		AutoOrient:NONE	3D:1								Blend:NORMAL				startTime:0	inPoint:0	outPoint:10	Layer	Name:loc WA		CompID:498	Type:Text	Video:1			Shy:1		AutoOrient:NONE	3D:1								Blend:NORMAL				startTime:0	inPoint:0	outPoint:10	Layer	Name:loc WI		CompID:498	Type:Text	Video:1			Shy:1		AutoOrient:NONE	3D:1								Blend:NORMAL				startTime:0	inPoint:0	outPoint:10	Layer	Name:loc WV		CompID:498	Type:Text	Video:1			Shy:1		AutoOrient:NONE	3D:1								Blend:NORMAL				startTime:0	inPoint:0	outPoint:10	Layer	Name:loc WY		CompID:498	Type:Text	Video:1			Shy:1		AutoOrient:NONE	3D:1								Blend:NORMAL				startTime:0	inPoint:0	outPoint:10	Layer	Name:Kamera 1		CompID:498	Type:Camera	Video:0					AutoOrient:CAM_POI											startTime:0	inPoint:0	outPoint:10.48	Layer	Name:Licht 1		CompID:498	Type:Light-Point	Video:0					AutoOrient:CAM_POI											startTime:0	inPoint:0	outPoint:10	Layer	Name:OF	ID:346	CompID:498	Type:Solid	Video:1					AutoOrient:NONE									Blend:NORMAL			UsedIn:4	startTime:0	inPoint:0	outPoint:10	Layer	Name:center 1356875224144	ID:401	CompID:498	Type:Null	Video:1					AutoOrient:NONE	3D:1								Blend:NORMAL			UsedIn:4	startTime:0	inPoint:0	outPoint:10	Layer	Name:undefined Shape		CompID:17	Type:Shape	Video:1					AutoOrient:NONE	3D:1								Blend:NORMAL				startTime:0	inPoint:0	outPoint:10	Layer	Name:undefined Shape 2		CompID:17	Type:Shape	Video:1					AutoOrient:NONE	3D:1								Blend:NORMAL				startTime:0	inPoint:0	outPoint:10	Layer	Name:undefined Shape 3		CompID:17	Type:Shape	Video:1					AutoOrient:NONE	3D:1								Blend:NORMAL				startTime:0	inPoint:0	outPoint:10	Layer	Name:Dunkelgrau Farbfläche 1	ID:322	CompID:310	Type:Solid	Video:1					AutoOrient:NONE									Blend:NORMAL			UsedIn:1	startTime:0	inPoint:0	outPoint:23	Layer	Name:Solid_new world map		CompID:310	Type:Shape	Video:1					AutoOrient:NONE									Blend:NORMAL				startTime:0	inPoint:0	outPoint:23	Layer	Name:europe_clouds_8k.jpg	ID:324	CompID:310	Type:Footage	Video:0					AutoOrient:NONE									Blend:SCREEN			UsedIn:1	startTime:0	inPoint:0	outPoint:23	Layer	Name:starfield.jpg	ID:332	CompID:334	Type:Footage	Video:1					AutoOrient:NONE									Blend:NORMAL			UsedIn:2	startTime:0	inPoint:0	outPoint:10	Layer	Name:new starfield	ID:1142	CompID:954	Type:Comp	Video:1					AutoOrient:CAM_POI	3D:1								Blend:NORMAL			UsedIn:1	startTime:0	inPoint:0	outPoint:10	Layer	Name:E3D Earth	ID:965	CompID:954	Type:Solid	Video:1					AutoOrient:NONE									Blend:NORMAL			UsedIn:1	startTime:0	inPoint:0	outPoint:10	Layer	Name:center Markers	ID:968	CompID:954	Type:Null	Video:1					AutoOrient:NONE	3D:1								Blend:NORMAL			UsedIn:1	startTime:0	inPoint:0	outPoint:10	Layer	Name:loc Alaska	ID:970	CompID:954	Type:Comp	Video:1					AutoOrient:NONE	3D:1								Blend:NORMAL		Collapse:1	UsedIn:1	startTime:0	inPoint:0	outPoint:10	Layer	Name:loc Alabama	ID:970	CompID:954	Type:Comp	Video:1					AutoOrient:NONE	3D:1								Blend:NORMAL		Collapse:1	UsedIn:1	startTime:0	inPoint:0	outPoint:10	Layer	Name:loc Arkansas	ID:970	CompID:954	Type:Comp	Video:1					AutoOrient:NONE	3D:1								Blend:NORMAL		Collapse:1	UsedIn:1	startTime:0	inPoint:0	outPoint:10	Layer	Name:loc Arizona	ID:970	CompID:954	Type:Comp	Video:1					AutoOrient:NONE	3D:1								Blend:NORMAL		Collapse:1	UsedIn:1	startTime:0	inPoint:0	outPoint:10	Layer	Name:loc California	ID:970	CompID:954	Type:Comp	Video:1					AutoOrient:NONE	3D:1								Blend:NORMAL		Collapse:1	UsedIn:1	startTime:0	inPoint:0	outPoint:10	Layer	Name:loc Colorado	ID:970	CompID:954	Type:Comp	Video:1					AutoOrient:NONE	3D:1								Blend:NORMAL		Collapse:1	UsedIn:1	startTime:0	inPoint:0	outPoint:10	Layer	Name:loc Connecticut	ID:970	CompID:954	Type:Comp	Video:1					AutoOrient:NONE	3D:1								Blend:NORMAL		Collapse:1	UsedIn:1	startTime:0	inPoint:0	outPoint:10	Layer	Name:loc District of Columbia	ID:970	CompID:954	Type:Comp	Video:1					AutoOrient:NONE	3D:1								Blend:NORMAL		Collapse:1	UsedIn:1	startTime:0	inPoint:0	outPoint:10	Layer	Name:loc Delaware	ID:970	CompID:954	Type:Comp	Video:1					AutoOrient:NONE	3D:1								Blend:NORMAL		Collapse:1	UsedIn:1	startTime:0	inPoint:0	outPoint:10	Layer	Name:loc Florida	ID:970	CompID:954	Type:Comp	Video:1					AutoOrient:NONE	3D:1								Blend:NORMAL		Collapse:1	UsedIn:1	startTime:0	inPoint:0	outPoint:10	Layer	Name:loc Georgia	ID:970	CompID:954	Type:Comp	Video:1					AutoOrient:NONE	3D:1								Blend:NORMAL		Collapse:1	UsedIn:1	startTime:0	inPoint:0	outPoint:10	Layer	Name:loc Hawaii	ID:970	CompID:954	Type:Comp	Video:1					AutoOrient:NONE	3D:1								Blend:NORMAL		Collapse:1	UsedIn:1	startTime:0	inPoint:0	outPoint:10	Layer	Name:loc Iowa	ID:970	CompID:954	Type:Comp	Video:1					AutoOrient:NONE	3D:1								Blend:NORMAL		Collapse:1	UsedIn:1	startTime:0	inPoint:0	outPoint:10	Layer	Name:loc Idaho	ID:970	CompID:954	Type:Comp	Video:1					AutoOrient:NONE	3D:1								Blend:NORMAL		Collapse:1	UsedIn:1	startTime:0	inPoint:0	outPoint:10	Layer	Name:loc Illinois	ID:970	CompID:954	Type:Comp	Video:1					AutoOrient:NONE	3D:1								Blend:NORMAL		Collapse:1	UsedIn:1	startTime:0	inPoint:0	outPoint:10	Layer	Name:loc Indiana	ID:970	CompID:954	Type:Comp	Video:1					AutoOrient:NONE	3D:1								Blend:NORMAL		Collapse:1	UsedIn:1	startTime:0	inPoint:0	outPoint:10	Layer	Name:loc Kansas	ID:970	CompID:954	Type:Comp	Video:1					AutoOrient:NONE	3D:1								Blend:NORMAL		Collapse:1	UsedIn:1	startTime:0	inPoint:0	outPoint:10	Layer	Name:loc Kentucky	ID:970	CompID:954	Type:Comp	Video:1					AutoOrient:NONE	3D:1								Blend:NORMAL		Collapse:1	UsedIn:1	startTime:0	inPoint:0	outPoint:10	Layer	Name:loc Louisiana	ID:970	CompID:954	Type:Comp	Video:1					AutoOrient:NONE	3D:1								Blend:NORMAL		Collapse:1	UsedIn:1	startTime:0	inPoint:0	outPoint:10	Layer	Name:loc Massachusetts	ID:970	CompID:954	Type:Comp	Video:1					AutoOrient:NONE	3D:1								Blend:NORMAL		Collapse:1	UsedIn:1	startTime:0	inPoint:0	outPoint:10	Layer	Name:loc Maryland	ID:970	CompID:954	Type:Comp	Video:1					AutoOrient:NONE	3D:1								Blend:NORMAL		Collapse:1	UsedIn:1	startTime:0	inPoint:0	outPoint:10	Layer	Name:loc Maine	ID:970	CompID:954	Type:Comp	Video:1					AutoOrient:NONE	3D:1								Blend:NORMAL		Collapse:1	UsedIn:1	startTime:0	inPoint:0	outPoint:10	Layer	Name:loc Michigan	ID:970	CompID:954	Type:Comp	Video:1					AutoOrient:NONE	3D:1								Blend:NORMAL		Collapse:1	UsedIn:1	startTime:0	inPoint:0	outPoint:10	Layer	Name:loc Minnesota	ID:970	CompID:954	Type:Comp	Video:1					AutoOrient:NONE	3D:1								Blend:NORMAL		Collapse:1	UsedIn:1	startTime:0	inPoint:0	outPoint:10	Layer	Name:loc Missouri	ID:970	CompID:954	Type:Comp	Video:1					AutoOrient:NONE	3D:1								Blend:NORMAL		Collapse:1	UsedIn:1	startTime:0	inPoint:0	outPoint:10	Layer	Name:loc Mississippi	ID:970	CompID:954	Type:Comp	Video:1					AutoOrient:NONE	3D:1								Blend:NORMAL		Collapse:1	UsedIn:1	startTime:0	inPoint:0	outPoint:10	Layer	Name:loc Montana	ID:970	CompID:954	Type:Comp	Video:1					AutoOrient:NONE	3D:1								Blend:NORMAL		Collapse:1	UsedIn:1	startTime:0	inPoint:0	outPoint:10	Layer	Name:loc North Carolina	ID:970	CompID:954	Type:Comp	Video:1					AutoOrient:NONE	3D:1								Blend:NORMAL		Collapse:1	UsedIn:1	startTime:0	inPoint:0	outPoint:10	Layer	Name:loc North Dakota	ID:970	CompID:954	Type:Comp	Video:1					AutoOrient:NONE	3D:1								Blend:NORMAL		Collapse:1	UsedIn:1	startTime:0	inPoint:0	outPoint:10	Layer	Name:loc Nebraska	ID:970	CompID:954	Type:Comp	Video:1					AutoOrient:NONE	3D:1								Blend:NORMAL		Collapse:1	UsedIn:1	startTime:0	inPoint:0	outPoint:10	Layer	Name:loc New Hampshire	ID:970	CompID:954	Type:Comp	Video:1					AutoOrient:NONE	3D:1								Blend:NORMAL		Collapse:1	UsedIn:1	startTime:0	inPoint:0	outPoint:10	Layer	Name:loc New Jersey	ID:970	CompID:954	Type:Comp	Video:1					AutoOrient:NONE	3D:1								Blend:NORMAL		Collapse:1	UsedIn:1	startTime:0	inPoint:0	outPoint:10	Layer	Name:loc New Mexico	ID:970	CompID:954	Type:Comp	Video:1					AutoOrient:NONE	3D:1								Blend:NORMAL		Collapse:1	UsedIn:1	startTime:0	inPoint:0	outPoint:10	Layer	Name:loc Nevada	ID:970	CompID:954	Type:Comp	Video:1					AutoOrient:NONE	3D:1								Blend:NORMAL		Collapse:1	UsedIn:1	startTime:0	inPoint:0	outPoint:10	Layer	Name:loc New York	ID:970	CompID:954	Type:Comp	Video:1					AutoOrient:NONE	3D:1								Blend:NORMAL		Collapse:1	UsedIn:1	startTime:0	inPoint:0	outPoint:10	Layer	Name:loc Ohio	ID:970	CompID:954	Type:Comp	Video:1					AutoOrient:NONE	3D:1								Blend:NORMAL		Collapse:1	UsedIn:1	startTime:0	inPoint:0	outPoint:10	Layer	Name:loc Oklahoma	ID:970	CompID:954	Type:Comp	Video:1					AutoOrient:NONE	3D:1								Blend:NORMAL		Collapse:1	UsedIn:1	startTime:0	inPoint:0	outPoint:10	Layer	Name:loc Oregon	ID:970	CompID:954	Type:Comp	Video:1					AutoOrient:NONE	3D:1								Blend:NORMAL		Collapse:1	UsedIn:1	startTime:0	inPoint:0	outPoint:10	Layer	Name:loc Pennsylvania	ID:970	CompID:954	Type:Comp	Video:1					AutoOrient:NONE	3D:1								Blend:NORMAL		Collapse:1	UsedIn:1	startTime:0	inPoint:0	outPoint:10	Layer	Name:loc Rhode Island	ID:970	CompID:954	Type:Comp	Video:1					AutoOrient:NONE	3D:1								Blend:NORMAL		Collapse:1	UsedIn:1	startTime:0	inPoint:0	outPoint:10	Layer	Name:loc South Carolina	ID:970	CompID:954	Type:Comp	Video:1					AutoOrient:NONE	3D:1								Blend:NORMAL		Collapse:1	UsedIn:1	startTime:0	inPoint:0	outPoint:10	Layer	Name:loc South Dakota	ID:970	CompID:954	Type:Comp	Video:1					AutoOrient:NONE	3D:1								Blend:NORMAL		Collapse:1	UsedIn:1	startTime:0	inPoint:0	outPoint:10	Layer	Name:loc Tennessee	ID:970	CompID:954	Type:Comp	Video:1					AutoOrient:NONE	3D:1								Blend:NORMAL		Collapse:1	UsedIn:1	startTime:0	inPoint:0	outPoint:10	Layer	Name:loc Texas	ID:970	CompID:954	Type:Comp	Video:1					AutoOrient:NONE	3D:1								Blend:NORMAL		Collapse:1	UsedIn:1	startTime:0	inPoint:0	outPoint:10	Layer	Name:loc Utah	ID:970	CompID:954	Type:Comp	Video:1					AutoOrient:NONE	3D:1								Blend:NORMAL		Collapse:1	UsedIn:1	startTime:0	inPoint:0	outPoint:10	Layer	Name:loc Virginia	ID:970	CompID:954	Type:Comp	Video:1					AutoOrient:NONE	3D:1								Blend:NORMAL		Collapse:1	UsedIn:1	startTime:0	inPoint:0	outPoint:10	Layer	Name:loc Vermont	ID:970	CompID:954	Type:Comp	Video:1					AutoOrient:NONE	3D:1								Blend:NORMAL		Collapse:1	UsedIn:1	startTime:0	inPoint:0	outPoint:10	Layer	Name:loc Washington	ID:970	CompID:954	Type:Comp	Video:1					AutoOrient:NONE	3D:1								Blend:NORMAL		Collapse:1	UsedIn:1	startTime:0	inPoint:0	outPoint:10	Layer	Name:loc Wisconsin	ID:970	CompID:954	Type:Comp	Video:1					AutoOrient:NONE	3D:1								Blend:NORMAL		Collapse:1	UsedIn:1	startTime:0	inPoint:0	outPoint:10	Layer	Name:loc West Virginia	ID:970	CompID:954	Type:Comp	Video:1					AutoOrient:NONE	3D:1								Blend:NORMAL		Collapse:1	UsedIn:1	startTime:0	inPoint:0	outPoint:10	Layer	Name:loc Wyoming	ID:970	CompID:954	Type:Comp	Video:1					AutoOrient:NONE	3D:1								Blend:NORMAL		Collapse:1	UsedIn:1	startTime:0	inPoint:0	outPoint:10	Layer	Name:E3D Clouds	ID:965	CompID:954	Type:Solid	Video:1					AutoOrient:NONE									Blend:SCREEN			UsedIn:1	startTime:0	inPoint:0	outPoint:10	Layer	Name:center Text	ID:1084	CompID:954	Type:Null	Video:1					AutoOrient:NONE	3D:1								Blend:NORMAL			UsedIn:1	startTime:0	inPoint:0	outPoint:10	Layer	Name:loc AK		CompID:954	Type:Text	Video:1					AutoOrient:NONE	3D:1								Blend:NORMAL				startTime:0	inPoint:0	outPoint:10	Layer	Name:loc AL		CompID:954	Type:Text	Video:1					AutoOrient:NONE	3D:1								Blend:NORMAL				startTime:0	inPoint:0	outPoint:10	Layer	Name:loc AR		CompID:954	Type:Text	Video:1					AutoOrient:NONE	3D:1								Blend:NORMAL				startTime:0	inPoint:0	outPoint:10	Layer	Name:loc AZ		CompID:954	Type:Text	Video:1					AutoOrient:NONE	3D:1								Blend:NORMAL				startTime:0	inPoint:0	outPoint:10	Layer	Name:loc CA		CompID:954	Type:Text	Video:1					AutoOrient:NONE	3D:1								Blend:NORMAL				startTime:0	inPoint:0	outPoint:10	Layer	Name:loc CO		CompID:954	Type:Text	Video:1					AutoOrient:NONE	3D:1								Blend:NORMAL				startTime:0	inPoint:0	outPoint:10	Layer	Name:loc CT		CompID:954	Type:Text	Video:1					AutoOrient:NONE	3D:1								Blend:NORMAL				startTime:0	inPoint:0	outPoint:10	Layer	Name:loc DC		CompID:954	Type:Text	Video:1					AutoOrient:NONE	3D:1								Blend:NORMAL				startTime:0	inPoint:0	outPoint:10	Layer	Name:loc DE		CompID:954	Type:Text	Video:1					AutoOrient:NONE	3D:1								Blend:NORMAL				startTime:0	inPoint:0	outPoint:10	Layer	Name:loc FL		CompID:954	Type:Text	Video:1					AutoOrient:NONE	3D:1								Blend:NORMAL				startTime:0	inPoint:0	outPoint:10	Layer	Name:loc GA		CompID:954	Type:Text	Video:1					AutoOrient:NONE	3D:1								Blend:NORMAL				startTime:0	inPoint:0	outPoint:10	Layer	Name:loc HI		CompID:954	Type:Text	Video:1					AutoOrient:NONE	3D:1								Blend:NORMAL				startTime:0	inPoint:0	outPoint:10	Layer	Name:loc IA		CompID:954	Type:Text	Video:1					AutoOrient:NONE	3D:1								Blend:NORMAL				startTime:0	inPoint:0	outPoint:10	Layer	Name:loc ID		CompID:954	Type:Text	Video:1					AutoOrient:NONE	3D:1								Blend:NORMAL				startTime:0	inPoint:0	outPoint:10	Layer	Name:loc IL		CompID:954	Type:Text	Video:1					AutoOrient:NONE	3D:1								Blend:NORMAL				startTime:0	inPoint:0	outPoint:10	Layer	Name:loc IN		CompID:954	Type:Text	Video:1					AutoOrient:NONE	3D:1								Blend:NORMAL				startTime:0	inPoint:0	outPoint:10	Layer	Name:loc KS		CompID:954	Type:Text	Video:1					AutoOrient:NONE	3D:1								Blend:NORMAL				startTime:0	inPoint:0	outPoint:10	Layer	Name:loc KY		CompID:954	Type:Text	Video:1					AutoOrient:NONE	3D:1								Blend:NORMAL				startTime:0	inPoint:0	outPoint:10	Layer	Name:loc LA		CompID:954	Type:Text	Video:1					AutoOrient:NONE	3D:1								Blend:NORMAL				startTime:0	inPoint:0	outPoint:10	Layer	Name:loc MA		CompID:954	Type:Text	Video:1					AutoOrient:NONE	3D:1								Blend:NORMAL				startTime:0	inPoint:0	outPoint:10	Layer	Name:loc MD		CompID:954	Type:Text	Video:1					AutoOrient:NONE	3D:1								Blend:NORMAL				startTime:0	inPoint:0	outPoint:10	Layer	Name:loc ME		CompID:954	Type:Text	Video:1					AutoOrient:NONE	3D:1								Blend:NORMAL				startTime:0	inPoint:0	outPoint:10	Layer	Name:loc MI		CompID:954	Type:Text	Video:1					AutoOrient:NONE	3D:1								Blend:NORMAL				startTime:0	inPoint:0	outPoint:10	Layer	Name:loc MN		CompID:954	Type:Text	Video:1					AutoOrient:NONE	3D:1								Blend:NORMAL				startTime:0	inPoint:0	outPoint:10	Layer	Name:loc MO		CompID:954	Type:Text	Video:1					AutoOrient:NONE	3D:1								Blend:NORMAL				startTime:0	inPoint:0	outPoint:10	Layer	Name:loc MS		CompID:954	Type:Text	Video:1					AutoOrient:NONE	3D:1								Blend:NORMAL				startTime:0	inPoint:0	outPoint:10	Layer	Name:loc MT		CompID:954	Type:Text	Video:1					AutoOrient:NONE	3D:1								Blend:NORMAL				startTime:0	inPoint:0	outPoint:10	Layer	Name:loc NC		CompID:954	Type:Text	Video:1					AutoOrient:NONE	3D:1								Blend:NORMAL				startTime:0	inPoint:0	outPoint:10	Layer	Name:loc ND		CompID:954	Type:Text	Video:1					AutoOrient:NONE	3D:1								Blend:NORMAL				startTime:0	inPoint:0	outPoint:10	Layer	Name:loc NE		CompID:954	Type:Text	Video:1					AutoOrient:NONE	3D:1								Blend:NORMAL				startTime:0	inPoint:0	outPoint:10	Layer	Name:loc NH		CompID:954	Type:Text	Video:1					AutoOrient:NONE	3D:1								Blend:NORMAL				startTime:0	inPoint:0	outPoint:10	Layer	Name:loc NJ		CompID:954	Type:Text	Video:1					AutoOrient:NONE	3D:1								Blend:NORMAL				startTime:0	inPoint:0	outPoint:10	Layer	Name:loc NM		CompID:954	Type:Text	Video:1					AutoOrient:NONE	3D:1								Blend:NORMAL				startTime:0	inPoint:0	outPoint:10	Layer	Name:loc NV		CompID:954	Type:Text	Video:1					AutoOrient:NONE	3D:1								Blend:NORMAL				startTime:0	inPoint:0	outPoint:10	Layer	Name:loc NY		CompID:954	Type:Text	Video:1					AutoOrient:NONE	3D:1								Blend:NORMAL				startTime:0	inPoint:0	outPoint:10	Layer	Name:loc OH		CompID:954	Type:Text	Video:1					AutoOrient:NONE	3D:1								Blend:NORMAL				startTime:0	inPoint:0	outPoint:10	Layer	Name:loc OK		CompID:954	Type:Text	Video:1					AutoOrient:NONE	3D:1								Blend:NORMAL				startTime:0	inPoint:0	outPoint:10	Layer	Name:loc OR		CompID:954	Type:Text	Video:1					AutoOrient:NONE	3D:1								Blend:NORMAL				startTime:0	inPoint:0	outPoint:10	Layer	Name:loc PA		CompID:954	Type:Text	Video:1					AutoOrient:NONE	3D:1								Blend:NORMAL				startTime:0	inPoint:0	outPoint:10	Layer	Name:loc RI		CompID:954	Type:Text	Video:1					AutoOrient:NONE	3D:1								Blend:NORMAL				startTime:0	inPoint:0	outPoint:10	Layer	Name:loc SC		CompID:954	Type:Text	Video:1					AutoOrient:NONE	3D:1								Blend:NORMAL				startTime:0	inPoint:0	outPoint:10	Layer	Name:loc SD		CompID:954	Type:Text	Video:1					AutoOrient:NONE	3D:1								Blend:NORMAL				startTime:0	inPoint:0	outPoint:10	Layer	Name:loc TN		CompID:954	Type:Text	Video:1					AutoOrient:NONE	3D:1								Blend:NORMAL				startTime:0	inPoint:0	outPoint:10	Layer	Name:loc TX		CompID:954	Type:Text	Video:1					AutoOrient:NONE	3D:1								Blend:NORMAL				startTime:0	inPoint:0	outPoint:10	Layer	Name:loc UT		CompID:954	Type:Text	Video:1					AutoOrient:NONE	3D:1								Blend:NORMAL				startTime:0	inPoint:0	outPoint:10	Layer	Name:loc VA		CompID:954	Type:Text	Video:1					AutoOrient:NONE	3D:1								Blend:NORMAL				startTime:0	inPoint:0	outPoint:10	Layer	Name:loc VT		CompID:954	Type:Text	Video:1					AutoOrient:NONE	3D:1								Blend:NORMAL				startTime:0	inPoint:0	outPoint:10	Layer	Name:loc WA		CompID:954	Type:Text	Video:1					AutoOrient:NONE	3D:1								Blend:NORMAL				startTime:0	inPoint:0	outPoint:10	Layer	Name:loc WI		CompID:954	Type:Text	Video:1					AutoOrient:NONE	3D:1								Blend:NORMAL				startTime:0	inPoint:0	outPoint:10	Layer	Name:loc WV		CompID:954	Type:Text	Video:1					AutoOrient:NONE	3D:1								Blend:NORMAL				startTime:0	inPoint:0	outPoint:10	Layer	Name:loc WY		CompID:954	Type:Text	Video:1					AutoOrient:NONE	3D:1								Blend:NORMAL				startTime:0	inPoint:0	outPoint:10	Layer	Name:Cam 1		CompID:954	Type:Camera	Video:0					AutoOrient:CAM_POI											startTime:0	inPoint:0	outPoint:10	Layer	Name:Dark Gray Solid 1	ID:1167	CompID:1155	Type:Solid	Video:1					AutoOrient:NONE									Blend:NORMAL			UsedIn:1	startTime:0	inPoint:0	outPoint:23	Layer	Name:Solid_graphic world map		CompID:1155	Type:Shape	Video:1					AutoOrient:NONE									Blend:NORMAL				startTime:0	inPoint:0	outPoint:23	Layer	Name:undefined Shape		CompID:970	Type:Shape	Video:1					AutoOrient:NONE	3D:1								Blend:NORMAL				startTime:0	inPoint:0	outPoint:10	Layer	Name:undefined Shape 2		CompID:970	Type:Shape	Video:1					AutoOrient:NONE	3D:1								Blend:NORMAL				startTime:0	inPoint:0	outPoint:10	Layer	Name:undefined Shape 3		CompID:970	Type:Shape	Video:1					AutoOrient:NONE	3D:1								Blend:NORMAL				startTime:0	inPoint:0	outPoint:10	Layer	Name:starfield.jpg	ID:332	CompID:1142	Type:Footage	Video:1					AutoOrient:NONE									Blend:NORMAL			UsedIn:2	startTime:0	inPoint:0	outPoint:10	Parent	CompID:348																									Settings:4;3Mask	Name:Maske 1	Layer:1	CompID:348	Mode:ADD	Invert:0	Roto:0	MB:SAME	Lock:0												Color:0.89411764705882;0.84705882352941;0.29803921568627Shapes		Layer:1	CompID:348																	Property:ADBE Mask Parade|1|ADBE Mask Shape					Closed:1	Vertices:50;0;0;50;50;100;100;50	inTan:27.6142425537109;0;0;-27.6142425537109;-27.6142425537109;0;0;27.6142425537109	outTan:-27.6142425537109;0;0;27.6142425537109;27.6142425537109;0;0;-27.6142425537109Values		Layer:1	CompID:348																PropName:Position	Property:ADBE Transform Group|ADBE Position	Values:640;360;-250Values		Layer:1	CompID:348																PropName:Scale	Property:ADBE Transform Group|ADBE Scale	Values:41;41;41Values		Layer:1	CompID:348																PropName:Opacity	Property:ADBE Transform Group|ADBE Opacity	Values:100Text		Layer:2	CompID:348	Font:Helvetica	FontSize:35	Fill:1	Stroke:0		Justify:LEFT				FillColor:0;0;0			Tracking:0				Values:marker distance to cam%r%2445.08042770174Values		Layer:2	CompID:348																PropName:Position	Property:ADBE Transform Group|ADBE Position	Values:70;78;0Values		Layer:3	CompID:348																PropName:Position	Property:ADBE Transform Group|ADBE Position	Values:684.079257794072;436.836530134621;-85.33561196356Values		Layer:3	CompID:348																PropName:X Rotation	Property:ADBE Transform Group|ADBE Rotate X	Values:42Values		Layer:3	CompID:348																PropName:Y Rotation	Property:ADBE Transform Group|ADBE Rotate Y	Values:339Values		Layer:4	CompID:348																PropName:Point of Interest	Property:ADBE Transform Group|ADBE Anchor Point	Values:0;0;0Values		Layer:4	CompID:348																PropName:Position	Property:ADBE Transform Group|ADBE Position	Values:0;0;-1244.44444457Values		Layer:4	CompID:348																PropName:Zoom	Property:ADBE Camera Options Group|ADBE Camera Zoom	Values:1244.44444457Values		Layer:4	CompID:348																PropName:Depth of Field	Property:ADBE Camera Options Group|ADBE Camera Depth of Field	Values:1Values		Layer:4	CompID:348																PropName:Focus Distance	Property:ADBE Camera Options Group|ADBE Camera Focus Distance	Values:1244.44444457Values		Layer:4	CompID:348																PropName:Aperture	Property:ADBE Camera Options Group|ADBE Camera Aperture	Values:17.7165354330709Effect	Name:Element	Layer:5	CompID:348			MatchName:VIDEOCOPILOT 3DArrayEffect	Name:Noise	Layer:1	CompID:759			MatchName:ADBE NoiseValues		Layer:1	CompID:759																PropName:Amount of Noise	Property:ADBE Effect Parade|1|ADBE Noise-0001	Values:2Values		Layer:1	CompID:759																PropName:Noise Type	Property:ADBE Effect Parade|1|ADBE Noise-0002	Values:0Effect	Name:Curves	Layer:1	CompID:759			MatchName:ADBE CurvesCustomEffect	Name:Mojo	Layer:1	CompID:759			MatchName:ADBE MagicBulletMojoValues		Layer:1	CompID:759																PropName:Mojo	Property:ADBE Effect Parade|3|ADBE MagicBulletMojo-0002	Values:22.3776223776224Values		Layer:1	CompID:759																PropName:Warm It	Property:ADBE Effect Parade|3|ADBE MagicBulletMojo-0010	Values:27.6223776223776Values		Layer:1	CompID:759																PropName:Bleach It	Property:ADBE Effect Parade|3|ADBE MagicBulletMojo-0006	Values:12.5874125874126Effect	Name:Fast Blur	Layer:2	CompID:759			MatchName:ADBE Fast BlurValues		Layer:2	CompID:759																PropName:Blurriness	Property:ADBE Effect Parade|1|ADBE Fast Blur-0001	Values:5Values		Layer:2	CompID:759																PropName:Repeat Edge Pixels	Property:ADBE Effect Parade|1|ADBE Fast Blur-0003	Values:1Mask	Name:Maske 1	Layer:3	CompID:759	Mode:SUBTRACT	Invert:0	Roto:0	MB:SAME	Lock:0												Color:0.89803921568627;0.73725490196078;0.78823529411765Shapes		Layer:3	CompID:759																	Property:ADBE Mask Parade|1|ADBE Mask Shape					Closed:1	Vertices:640;0;0;360;640;720;1280;360	inTan:353.462280273438;0;0;-198.822509765625;-353.462249755859;0;0;198.822509765625	outTan:-353.462249755859;0;0;198.822509765625;353.462280273438;0;0;-198.822509765625Values		Layer:3	CompID:759																PropName:Mask Feather	Property:ADBE Mask Parade|1|ADBE Mask Feather	Values:112;112Values		Layer:3	CompID:759																PropName:Mask Expansion	Property:ADBE Mask Parade|1|ADBE Mask Offset	Values:-30Values		Layer:3	CompID:759																PropName:Opacity	Property:ADBE Transform Group|ADBE Opacity	Values:30Effect	Name:radius	Layer:1	CompID:775			MatchName:ADBE Slider ControlValues		Layer:1	CompID:775																PropName:Slider	Property:ADBE Effect Parade|1|ADBE Slider Control-0001	Values:469Values		Layer:1	CompID:775																PropName:Position	Property:ADBE Transform Group|ADBE Position	Values:640;360;0Effect	Name:Optical Flares	Layer:2	CompID:775			MatchName:VIDEOCOPILOT OpticalFlaresValues		Layer:2	CompID:775																PropName:Scale	Property:ADBE Effect Parade|1|VIDEOCOPILOT OpticalFlares-0004	Values:40Values		Layer:2	CompID:775																PropName:Source Type	Property:ADBE Effect Parade|1|VIDEOCOPILOT OpticalFlares-0009	Values:3Values		Layer:2	CompID:775																PropName:Render Mode	Property:ADBE Effect Parade|1|VIDEOCOPILOT OpticalFlares-0025	Values:2Values		Layer:3	CompID:775																PropName:Position	Property:ADBE Transform Group|ADBE Position	Values:100.140686035156;-89.3333358764648;403.80224609375Values		Layer:3	CompID:775																PropName:Radius	Property:ADBE Light Options Group|ADBE Light Falloff Start	Values:1434Values		Layer:3	CompID:775																PropName:Falloff Distance	Property:ADBE Light Options Group|ADBE Light Falloff Distance	Values:1038Values		Layer:3	CompID:775																PropName:Casts Shadows	Property:ADBE Light Options Group|ADBE Casts Shadows	Values:1Values		Layer:3	CompID:775																PropName:Shadow Darkness	Property:ADBE Light Options Group|ADBE Light Shadow Darkness	Values:144Values		Layer:4	CompID:775																PropName:Point of Interest	Property:ADBE Transform Group|ADBE Anchor Point	Values:741.882119055947;645.521224674103;-55.7085950726329Values		Layer:4	CompID:775																PropName:Position	Property:ADBE Transform Group|ADBE Position					Values:-203.553063942296;-1196.25880130836;467.951244523053|106.226668093958;-302.877504742851;158.40502126647|337.416419127489;74.7024318350693;28.9812283598292	Times:0|4.56|8.04	Interp:1;L;B:ITE;0;16.666666667:OTE;2.74657741254718;32.0542176405014:SAB;0:SC;1:IST;0;0;0:OST;0;0;0:ROV;0|2;B;B:TAB;0:TCB;0:ITE;254.655354884316;33.333333:OTE;253.99540007668;47.7171383726288:SAB;0:SC;1:IST;0;0;0:OST;0;0;0:ROV;0|3;B;L:ITE;0;16.666666667:OTE;0;16.666666667:SAB;0:SC;1:IST;0;0;0:OST;0;0;0:ROV;0Values		Layer:4	CompID:775																PropName:Zoom	Property:ADBE Camera Options Group|ADBE Camera Zoom	Values:1244Values		Layer:4	CompID:775																PropName:Focus Distance	Property:ADBE Camera Options Group|ADBE Camera Focus Distance					Values:1244|167	Times:0.12|6.28	Interp:1;L;B:ITE;0;16.666666667:OTE;0.85259863166124;16.666666667|2;B;L:ITE;-3.43648160825376;16.666666667:OTE;0;16.666666667Values		Layer:4	CompID:775																PropName:Aperture	Property:ADBE Camera Options Group|ADBE Camera Aperture	Values:28.7165354330709Values		Layer:4	CompID:775																PropName:Blur Level	Property:ADBE Camera Options Group|ADBE Camera Blur Level	Values:146Text		Layer:5	CompID:775	Font:Helvetica	FontSize:12	Fill:1	Stroke:1	StrokeOverFill:1	Justify:CENTER				FillColor:0;0;0	StrokeColor:1;1;1	StrokeWidth:1	Tracking:0				Values:WYValues		Layer:5	CompID:775																PropName:Fill & Stroke	Property:ADBE Text Properties|ADBE Text More Options|ADBE Text Render Order	Values:2Effect	Name:lat	Layer:5	CompID:775			MatchName:ADBE Angle ControlValues		Layer:5	CompID:775																PropName:Angle	Property:ADBE Effect Parade|1|ADBE Angle Control-0001	Values:42.9985427856445Effect	Name:lon	Layer:5	CompID:775			MatchName:ADBE Angle Control